sessionName,monkeyName,sessionN,trial,block,blocktrial,trialType,targetLoc,ssd,response,rt,value
jou-cmand1DR-20201110,jo,1,1,1,1,Stop,Left,50,NoResponse,0,Low
jou-cmand1DR-20201110,jo,1,2,1,2,Go,Left,0,NoStart,0,Low
jou-cmand1DR-20201110,jo,1,3,1,3,Go,Right,0,NoStart,0,High
jou-cmand1DR-20201110,jo,1,4,1,4,Stop,Left,200,NoStart,0,Low
jou-cmand1DR-20201110,jo,1,5,1,5,Go,Right,0,Right,437,High
jou-cmand1DR-20201110,jo,1,6,1,6,Go,Left,0,NoStart,0,Low
jou-cmand1DR-20201110,jo,1,7,1,7,Go,Left,0,NoStart,0,Low
jou-cmand1DR-20201110,jo,1,8,1,8,Stop,Left,333,Left,262,Low
jou-cmand1DR-20201110,jo,1,9,1,9,Go,Right,0,Right,175,High
jou-cmand1DR-20201110,jo,1,10,1,10,Go,Left,0,Left,298,Low
jou-cmand1DR-20201110,jo,1,11,1,11,Go,Left,0,Left,241,Low
jou-cmand1DR-20201110,jo,1,12,1,12,Go,Right,0,Right,194,High
jou-cmand1DR-20201110,jo,1,13,1,13,Go,Left,0,Left,326,Low
jou-cmand1DR-20201110,jo,1,14,1,14,Go,Right,0,Right,253,High
jou-cmand1DR-20201110,jo,1,15,1,15,Stop,Right,200,Right,265,High
jou-cmand1DR-20201110,jo,1,16,1,16,Go,Left,0,Left,219,Low
jou-cmand1DR-20201110,jo,1,17,2,1,Stop,Right,133,NoResponse,0,Low
jou-cmand1DR-20201110,jo,1,18,2,2,Go,Right,0,Right,234,Low
jou-cmand1DR-20201110,jo,1,19,2,3,Stop,Right,333,Right,267,Low
jou-cmand1DR-20201110,jo,1,20,2,4,Stop,Left,267,Left,234,High
jou-cmand1DR-20201110,jo,1,21,2,5,Stop,Left,133,NoResponse,0,High
jou-cmand1DR-20201110,jo,1,22,2,6,Stop,Left,267,Left,326,High
jou-cmand1DR-20201110,jo,1,23,2,7,Go,Right,0,Right,658,Low
jou-cmand1DR-20201110,jo,1,24,2,8,Go,Right,0,Right,577,Low
jou-cmand1DR-20201110,jo,1,25,2,9,Go,Right,0,Right,558,Low
jou-cmand1DR-20201110,jo,1,26,2,10,Go,Left,0,Left,187,High
jou-cmand1DR-20201110,jo,1,27,2,11,Stop,Right,133,NoResponse,0,Low
jou-cmand1DR-20201110,jo,1,28,2,12,Go,Right,0,Right,383,Low
jou-cmand1DR-20201110,jo,1,29,2,13,Go,Right,0,Right,437,Low
jou-cmand1DR-20201110,jo,1,30,2,14,Go,Right,0,Right,282,Low
jou-cmand1DR-20201110,jo,1,31,2,15,Go,Right,0,Right,409,Low
jou-cmand1DR-20201110,jo,1,32,2,16,Go,Right,0,NoStart,0,Low
jou-cmand1DR-20201110,jo,1,33,2,17,Stop,Right,267,Right,322,Low
jou-cmand1DR-20201110,jo,1,34,2,18,Go,Left,0,NoStart,0,High
jou-cmand1DR-20201110,jo,1,35,2,19,Go,Right,0,Right,306,Low
jou-cmand1DR-20201110,jo,1,36,3,1,Go,Left,0,Left,222,Low
jou-cmand1DR-20201110,jo,1,37,3,2,Stop,Left,133,NoResponse,0,Low
jou-cmand1DR-20201110,jo,1,38,3,3,Go,Left,0,NoStart,0,Low
jou-cmand1DR-20201110,jo,1,39,3,4,Go,Left,0,NoStart,0,Low
jou-cmand1DR-20201110,jo,1,40,3,5,Stop,Left,200,NoStart,0,Low
jou-cmand1DR-20201110,jo,1,41,3,6,Stop,Right,400,NoStart,0,High
jou-cmand1DR-20201110,jo,1,42,3,7,Go,Left,0,NoStart,0,Low
jou-cmand1DR-20201110,jo,1,43,3,8,Stop,Left,483,NoStart,0,Low
jou-cmand1DR-20201110,jo,1,44,3,9,Go,Right,0,NoStart,0,High
jou-cmand1DR-20201110,jo,1,45,3,10,Go,Left,0,NoStart,0,Low
jou-cmand1DR-20201110,jo,1,46,3,11,Go,Left,0,Left,256,Low
jou-cmand1DR-20201110,jo,1,47,3,12,Go,Left,0,Left,438,Low
jou-cmand1DR-20201110,jo,1,48,3,13,Stop,Right,483,NoStart,0,High
jou-cmand1DR-20201110,jo,1,49,3,14,Stop,Left,483,Left,361,Low
jou-cmand1DR-20201110,jo,1,50,3,15,Go,Left,0,Left,338,Low
jou-cmand1DR-20201110,jo,1,51,3,16,Go,Left,0,Left,408,Low
jou-cmand1DR-20201110,jo,1,52,3,17,Go,Left,0,Left,355,Low
jou-cmand1DR-20201110,jo,1,53,3,18,Go,Right,0,Right,281,High
jou-cmand1DR-20201110,jo,1,54,3,19,Go,Left,0,NoStart,0,Low
jou-cmand1DR-20201110,jo,1,55,3,20,Go,Left,0,Left,333,Low
jou-cmand1DR-20201110,jo,1,56,3,21,Stop,Left,267,Left,276,Low
jou-cmand1DR-20201110,jo,1,57,3,22,Go,Left,0,Left,355,Low
jou-cmand1DR-20201110,jo,1,58,3,23,Stop,Left,50,NoResponse,0,Low
jou-cmand1DR-20201110,jo,1,59,3,24,Go,Left,0,NoStart,0,Low
jou-cmand1DR-20201110,jo,1,60,3,25,Go,Right,0,NoStart,0,High
jou-cmand1DR-20201110,jo,1,61,3,26,Stop,Left,267,NoStart,0,Low
jou-cmand1DR-20201110,jo,1,62,3,27,Go,Left,0,NoStart,0,Low
jou-cmand1DR-20201110,jo,1,63,3,28,Stop,Right,400,NoStart,0,High
jou-cmand1DR-20201110,jo,1,64,3,29,Stop,Right,483,NoStart,0,High
jou-cmand1DR-20201110,jo,1,65,3,30,Stop,Right,483,NoStart,0,High
jou-cmand1DR-20201110,jo,1,66,3,31,Go,Right,0,NoStart,0,High
jou-cmand1DR-20201110,jo,1,67,3,32,Stop,Left,483,Left,326,Low
jou-cmand1DR-20201110,jo,1,68,3,33,Go,Right,0,Right,274,High
jou-cmand1DR-20201110,jo,1,69,3,34,Go,Left,0,NoStart,0,Low
jou-cmand1DR-20201110,jo,1,70,3,35,Stop,Right,200,NoStart,0,High
jou-cmand1DR-20201110,jo,1,71,3,36,Go,Left,0,Left,282,Low
jou-cmand1DR-20201110,jo,1,72,3,37,Go,Left,0,Left,274,Low
jou-cmand1DR-20201110,jo,1,73,3,38,Stop,Right,483,Right,301,High
jou-cmand1DR-20201110,jo,1,74,3,39,Stop,Left,267,Left,273,Low
jou-cmand1DR-20201110,jo,1,75,3,40,Go,Left,0,Left,280,Low
jou-cmand1DR-20201110,jo,1,76,4,1,Go,Right,0,Right,241,Low
jou-cmand1DR-20201110,jo,1,77,4,2,Stop,Right,133,NoStart,0,Low
jou-cmand1DR-20201110,jo,1,78,4,3,Go,Right,0,NoStart,0,Low
jou-cmand1DR-20201110,jo,1,79,4,4,Go,Right,0,NoStart,0,Low
jou-cmand1DR-20201110,jo,1,80,4,5,Stop,Right,50,NoStart,0,Low
jou-cmand1DR-20201110,jo,1,81,4,6,Go,Left,0,NoStart,0,High
jou-cmand1DR-20201110,jo,1,82,4,7,Go,Left,0,Left,315,High
jou-cmand1DR-20201110,jo,1,83,4,8,Go,Right,0,Right,302,Low
jou-cmand1DR-20201110,jo,1,84,4,9,Stop,Left,50,NoStart,0,High
jou-cmand1DR-20201110,jo,1,85,4,10,Go,Right,0,NoStart,0,Low
jou-cmand1DR-20201110,jo,1,86,4,11,Go,Right,0,Right,283,Low
jou-cmand1DR-20201110,jo,1,87,4,12,Stop,Left,50,NoResponse,0,High
jou-cmand1DR-20201110,jo,1,88,4,13,Go,Right,0,Right,370,Low
jou-cmand1DR-20201110,jo,1,89,4,14,Go,Left,0,Left,229,High
jou-cmand1DR-20201110,jo,1,90,4,15,Stop,Right,133,NoResponse,0,Low
jou-cmand1DR-20201110,jo,1,91,4,16,Stop,Left,333,Left,228,High
jou-cmand1DR-20201110,jo,1,92,4,17,Stop,Left,133,NoResponse,0,High
jou-cmand1DR-20201110,jo,1,93,4,18,Stop,Right,267,NoResponse,0,Low
jou-cmand1DR-20201110,jo,1,94,4,19,Go,Left,0,Left,221,High
jou-cmand1DR-20201110,jo,1,95,4,20,Stop,Right,400,NoStart,0,Low
jou-cmand1DR-20201110,jo,1,96,4,21,Stop,Right,483,NoStart,0,Low
jou-cmand1DR-20201110,jo,1,97,4,22,Go,Right,0,NoStart,0,Low
jou-cmand1DR-20201110,jo,1,98,4,23,Go,Left,0,NoStart,0,High
jou-cmand1DR-20201110,jo,1,99,4,24,Go,Right,0,NoStart,0,Low
jou-cmand1DR-20201110,jo,1,100,4,25,Go,Right,0,NoStart,0,Low
jou-cmand1DR-20201110,jo,1,101,4,26,Stop,Right,483,NoStart,0,Low
jou-cmand1DR-20201110,jo,1,102,4,27,Go,Right,0,NoStart,0,Low
jou-cmand1DR-20201110,jo,1,103,4,28,Stop,Right,483,NoStart,0,Low
jou-cmand1DR-20201110,jo,1,104,4,29,Stop,Right,483,NoStart,0,Low
jou-cmand1DR-20201110,jo,1,105,4,30,Go,Left,0,NoStart,0,High
jou-cmand1DR-20201110,jo,1,106,4,31,Go,Left,0,NoStart,0,High
jou-cmand1DR-20201110,jo,1,107,4,32,Go,Left,0,NoStart,0,High
jou-cmand1DR-20201110,jo,1,108,4,33,Stop,Left,483,NoStart,0,High
jou-cmand1DR-20201110,jo,1,109,4,34,Go,Right,0,NoStart,0,Low
jou-cmand1DR-20201110,jo,1,110,4,35,Go,Left,0,NoStart,0,High
jou-cmand1DR-20201110,jo,1,111,4,36,Stop,Left,483,NoStart,0,High
jou-cmand1DR-20201110,jo,1,112,4,37,Stop,Right,483,NoStart,0,Low
jou-cmand1DR-20201110,jo,1,113,4,38,Stop,Left,483,NoStart,0,High
jou-cmand1DR-20201110,jo,1,114,4,39,Go,Right,0,NoStart,0,Low
jou-cmand1DR-20201110,jo,1,115,4,40,Stop,Right,483,NoStart,0,Low
jou-cmand1DR-20201110,jo,1,116,4,41,Stop,Left,483,NoStart,0,High
jou-cmand1DR-20201110,jo,1,117,4,42,Go,Left,0,NoStart,0,High
jou-cmand1DR-20201110,jo,1,118,4,43,Go,Right,0,NoStart,0,Low
jou-cmand1DR-20201110,jo,1,119,4,44,Go,Right,0,NoStart,0,Low
jou-cmand1DR-20201110,jo,1,120,4,45,Stop,Left,483,NoStart,0,High
jou-cmand1DR-20201110,jo,1,121,4,46,Stop,Left,483,NoStart,0,High
jou-cmand1DR-20201110,jo,1,122,4,47,Go,Right,0,NoStart,0,Low
jou-cmand1DR-20201110,jo,1,123,4,48,Stop,Right,483,NoStart,0,Low
jou-cmand1DR-20201110,jo,1,124,4,49,Stop,Left,483,NoStart,0,High
jou-cmand1DR-20201110,jo,1,125,4,50,Go,Right,0,NoStart,0,Low
jou-cmand1DR-20201110,jo,1,126,4,51,Go,Left,0,NoStart,0,High
jou-cmand1DR-20201110,jo,1,127,4,52,Go,Left,0,NoStart,0,High
jou-cmand1DR-20201110,jo,1,128,4,53,Go,Left,0,NoStart,0,High
jou-cmand1DR-20201110,jo,1,129,4,54,Go,Right,0,NoStart,0,Low
jou-cmand1DR-20201110,jo,1,130,4,55,Go,Left,0,NoStart,0,High
jou-cmand1DR-20201110,jo,1,131,4,56,Go,Left,0,NoStart,0,High
jou-cmand1DR-20201110,jo,1,132,4,57,Go,Left,0,NoStart,0,High
jou-cmand1DR-20201110,jo,1,133,4,58,Stop,Right,483,NoStart,0,Low
jou-cmand1DR-20201110,jo,1,134,4,59,Go,Left,0,Left,232,High
jou-cmand1DR-20201110,jo,1,135,4,60,Go,Right,0,Right,258,Low
jou-cmand1DR-20201110,jo,1,136,5,1,Go,Left,0,Left,350,Low
jou-cmand1DR-20201110,jo,1,137,5,2,Go,Left,0,Left,445,Low
jou-cmand1DR-20201110,jo,1,138,5,3,Go,Left,0,Left,319,Low
jou-cmand1DR-20201110,jo,1,139,5,4,Go,Left,0,Left,496,Low
jou-cmand1DR-20201110,jo,1,140,5,5,Stop,Left,483,Left,277,Low
jou-cmand1DR-20201110,jo,1,141,5,6,Go,Right,0,NoStart,0,High
jou-cmand1DR-20201110,jo,1,142,5,7,Go,Left,0,NoStart,0,Low
jou-cmand1DR-20201110,jo,1,143,5,8,Go,Left,0,NoStart,0,Low
jou-cmand1DR-20201110,jo,1,144,5,9,Go,Left,0,NoStart,0,Low
jou-cmand1DR-20201110,jo,1,145,5,10,Go,Left,0,NoStart,0,Low
jou-cmand1DR-20201110,jo,1,146,5,11,Go,Right,0,NoStart,0,High
jou-cmand1DR-20201110,jo,1,147,5,12,Go,Right,0,NoStart,0,High
jou-cmand1DR-20201110,jo,1,148,5,13,Go,Left,0,NoStart,0,Low
jou-cmand1DR-20201110,jo,1,149,5,14,Go,Left,0,NoStart,0,Low
jou-cmand1DR-20201110,jo,1,150,5,15,Stop,Right,400,NoStart,0,High
jou-cmand1DR-20201110,jo,1,151,5,16,Stop,Right,333,NoStart,0,High
jou-cmand1DR-20201110,jo,1,152,5,17,Stop,Right,133,NoStart,0,High
jou-cmand1DR-20201110,jo,1,153,5,18,Stop,Left,50,NoStart,0,Low
jou-cmand1DR-20201110,jo,1,154,5,19,Go,Left,0,NoStart,0,Low
jou-cmand1DR-20201110,jo,1,155,5,20,Stop,Right,50,NoStart,0,High
jou-cmand1DR-20201110,jo,1,156,5,21,Go,Left,0,NoStart,0,Low
jou-cmand1DR-20201110,jo,1,157,5,22,Go,Left,0,NoStart,0,Low
jou-cmand1DR-20201110,jo,1,158,5,23,Go,Left,0,NoStart,0,Low
jou-cmand1DR-20201110,jo,1,159,5,24,Stop,Left,50,NoStart,0,Low
jou-cmand1DR-20201110,jo,1,160,5,25,Go,Left,0,NoStart,0,Low
jou-cmand1DR-20201110,jo,1,161,5,26,Go,Right,0,NoStart,0,High
jou-cmand1DR-20201110,jo,1,162,5,27,Go,Left,0,NoStart,0,Low
jou-cmand1DR-20201110,jo,1,163,5,28,Go,Left,0,NoStart,0,Low
jou-cmand1DR-20201110,jo,1,164,5,29,Go,Left,0,NoStart,0,Low
jou-cmand1DR-20201110,jo,1,165,5,30,Go,Left,0,NoStart,0,Low
jou-cmand1DR-20201110,jo,1,166,5,31,Go,Right,0,NoStart,0,High
jou-cmand1DR-20201110,jo,1,167,5,32,Stop,Left,50,NoStart,0,Low
jou-cmand1DR-20201110,jo,1,168,5,33,Go,Right,0,Right,247,High
jou-cmand1DR-20201110,jo,1,169,5,34,Go,Right,0,Right,227,High
jou-cmand1DR-20201110,jo,1,170,5,35,Stop,Left,50,NoResponse,0,Low
jou-cmand1DR-20201110,jo,1,171,5,36,Go,Left,0,NoStart,0,Low
jou-cmand1DR-20201110,jo,1,172,5,37,Go,Right,0,Right,311,High
jou-cmand1DR-20201110,jo,1,173,5,38,Stop,Left,267,NoStart,0,Low
jou-cmand1DR-20201110,jo,1,174,5,39,Go,Left,0,NoStart,0,Low
jou-cmand1DR-20201110,jo,1,175,5,40,Go,Left,0,Left,253,Low
jou-cmand1DR-20201110,jo,1,176,5,41,Go,Right,0,Right,247,High
jou-cmand1DR-20201110,jo,1,177,5,42,Go,Left,0,Left,332,Low
jou-cmand1DR-20201110,jo,1,178,5,43,Go,Left,0,Left,338,Low
jou-cmand1DR-20201110,jo,1,179,5,44,Go,Left,0,Left,328,Low
jou-cmand1DR-20201110,jo,1,180,5,45,Go,Left,0,Left,339,Low
jou-cmand1DR-20201110,jo,1,181,5,46,Go,Right,0,Right,267,High
jou-cmand1DR-20201110,jo,1,182,5,47,Stop,Right,483,Right,291,High
jou-cmand1DR-20201110,jo,1,183,5,48,Go,Left,0,Left,277,Low
jou-cmand1DR-20201110,jo,1,184,5,49,Stop,Left,267,NoStart,0,Low
jou-cmand1DR-20201110,jo,1,185,5,50,Go,Right,0,Right,616,High
jou-cmand1DR-20201110,jo,1,186,5,51,Go,Left,0,Left,347,Low
jou-cmand1DR-20201110,jo,1,187,5,52,Stop,Right,267,NoResponse,0,High
jou-cmand1DR-20201110,jo,1,188,5,53,Go,Right,0,Right,524,High
jou-cmand1DR-20201110,jo,1,189,5,54,Go,Left,0,Left,288,Low
jou-cmand1DR-20201110,jo,1,190,5,55,Go,Left,0,Left,318,Low
jou-cmand1DR-20201110,jo,1,191,5,56,Go,Right,0,NoStart,0,High
jou-cmand1DR-20201110,jo,1,192,5,57,Go,Left,0,Left,263,Low
jou-cmand1DR-20201110,jo,1,193,6,1,Go,Right,0,Right,257,Low
jou-cmand1DR-20201110,jo,1,194,6,2,Stop,Right,483,Right,433,Low
jou-cmand1DR-20201110,jo,1,195,6,3,Go,Right,0,Right,364,Low
jou-cmand1DR-20201110,jo,1,196,6,4,Go,Left,0,Left,276,High
jou-cmand1DR-20201110,jo,1,197,6,5,Go,Right,0,Right,276,Low
jou-cmand1DR-20201110,jo,1,198,6,6,Go,Left,0,Left,283,High
jou-cmand1DR-20201110,jo,1,199,6,7,Go,Left,0,Left,297,High
jou-cmand1DR-20201110,jo,1,200,6,8,Stop,Left,400,Left,273,High
jou-cmand1DR-20201110,jo,1,201,6,9,Go,Right,0,Right,345,Low
jou-cmand1DR-20201110,jo,1,202,6,10,Go,Left,0,Left,235,High
jou-cmand1DR-20201110,jo,1,203,6,11,Go,Right,0,NoStart,0,Low
jou-cmand1DR-20201110,jo,1,204,6,12,Go,Left,0,Left,264,High
jou-cmand1DR-20201110,jo,1,205,6,13,Go,Right,0,Right,375,Low
jou-cmand1DR-20201110,jo,1,206,6,14,Stop,Left,333,Left,251,High
jou-cmand1DR-20201110,jo,1,207,6,15,Stop,Right,133,NoStart,0,Low
jou-cmand1DR-20201110,jo,1,208,6,16,Stop,Right,50,NoResponse,0,Low
jou-cmand1DR-20201110,jo,1,209,6,17,Go,Left,0,Left,237,High
jou-cmand1DR-20201110,jo,1,210,6,18,Go,Left,0,Left,253,High
jou-cmand1DR-20201110,jo,1,211,7,1,Stop,Right,267,Right,285,High
jou-cmand1DR-20201110,jo,1,212,7,2,Go,Left,0,Left,242,Low
jou-cmand1DR-20201110,jo,1,213,7,3,Go,Left,0,Left,371,Low
jou-cmand1DR-20201110,jo,1,214,7,4,Go,Right,0,Right,282,High
jou-cmand1DR-20201110,jo,1,215,7,5,Go,Left,0,Left,333,Low
jou-cmand1DR-20201110,jo,1,216,7,6,Stop,Right,200,Right,233,High
jou-cmand1DR-20201110,jo,1,217,7,7,Go,Right,0,Right,345,High
jou-cmand1DR-20201110,jo,1,218,7,8,Go,Left,0,Left,394,Low
jou-cmand1DR-20201110,jo,1,219,7,9,Stop,Right,50,NoResponse,0,High
jou-cmand1DR-20201110,jo,1,220,7,10,Go,Left,0,Left,494,Low
jou-cmand1DR-20201110,jo,1,221,7,11,Stop,Right,133,NoStart,0,High
jou-cmand1DR-20201110,jo,1,222,7,12,Go,Right,0,Right,354,High
jou-cmand1DR-20201110,jo,1,223,7,13,Go,Left,0,Left,320,Low
jou-cmand1DR-20201110,jo,1,224,7,14,Go,Right,0,Right,234,High
jou-cmand1DR-20201110,jo,1,225,7,15,Stop,Right,133,NoStart,0,High
jou-cmand1DR-20201110,jo,1,226,7,16,Go,Right,0,Right,277,High
jou-cmand1DR-20201110,jo,1,227,7,17,Stop,Right,133,NoResponse,0,High
jou-cmand1DR-20201110,jo,1,228,7,18,Go,Right,0,Right,311,High
jou-cmand1DR-20201110,jo,1,229,7,19,Stop,Right,333,Right,312,High
jou-cmand1DR-20201110,jo,1,230,7,20,Go,Right,0,Right,293,High
jou-cmand1DR-20201110,jo,1,231,7,21,Go,Right,0,NoStart,0,High
jou-cmand1DR-20201110,jo,1,232,7,22,Go,Left,0,Left,347,Low
jou-cmand1DR-20201110,jo,1,233,7,23,Stop,Left,267,Left,268,Low
jou-cmand1DR-20201110,jo,1,234,7,24,Stop,Right,133,NoResponse,0,High
jou-cmand1DR-20201110,jo,1,235,8,1,Stop,Left,333,NoResponse,0,High
jou-cmand1DR-20201110,jo,1,236,8,2,Stop,Right,400,Right,414,Low
jou-cmand1DR-20201110,jo,1,237,8,3,Stop,Right,200,NoResponse,0,Low
jou-cmand1DR-20201110,jo,1,238,8,4,Go,Right,0,Right,397,Low
jou-cmand1DR-20201110,jo,1,239,8,5,Go,Left,0,Left,285,High
jou-cmand1DR-20201110,jo,1,240,8,6,Go,Left,0,Left,270,High
jou-cmand1DR-20201110,jo,1,241,8,7,Go,Right,0,Right,395,Low
jou-cmand1DR-20201110,jo,1,242,8,8,Stop,Left,267,Left,219,High
jou-cmand1DR-20201110,jo,1,243,8,9,Go,Right,0,Right,335,Low
jou-cmand1DR-20201110,jo,1,244,8,10,Go,Right,0,Right,328,Low
jou-cmand1DR-20201110,jo,1,245,8,11,Go,Left,0,Left,282,High
jou-cmand1DR-20201110,jo,1,246,8,12,Go,Left,0,Left,258,High
jou-cmand1DR-20201110,jo,1,247,8,13,Stop,Left,133,NoResponse,0,High
jou-cmand1DR-20201110,jo,1,248,8,14,Stop,Right,333,NoResponse,0,Low
jou-cmand1DR-20201110,jo,1,249,8,15,Go,Right,0,Right,543,Low
jou-cmand1DR-20201110,jo,1,250,8,16,Go,Right,0,Right,334,Low
jou-cmand1DR-20201110,jo,1,251,8,17,Go,Right,0,Right,386,Low
jou-cmand1DR-20201110,jo,1,252,8,18,Stop,Left,483,Left,243,High
jou-cmand1DR-20201110,jo,1,253,8,19,Stop,Right,333,NoStart,0,Low
jou-cmand1DR-20201110,jo,1,254,8,20,Go,Right,0,NoStart,0,Low
jou-cmand1DR-20201110,jo,1,255,8,21,Stop,Left,133,NoStart,0,High
jou-cmand1DR-20201110,jo,1,256,8,22,Go,Left,0,Left,255,High
jou-cmand1DR-20201110,jo,1,257,8,23,Go,Right,0,Right,301,Low
jou-cmand1DR-20201110,jo,1,258,8,24,Go,Right,0,NoStart,0,Low
jou-cmand1DR-20201110,jo,1,259,8,25,Go,Right,0,NoStart,0,Low
jou-cmand1DR-20201110,jo,1,260,8,26,Go,Left,0,Left,251,High
jou-cmand1DR-20201110,jo,1,261,8,27,Go,Left,0,NoStart,0,High
jou-cmand1DR-20201110,jo,1,262,8,28,Go,Right,0,NoStart,0,Low
jou-cmand1DR-20201110,jo,1,263,8,29,Go,Right,0,NoStart,0,Low
jou-cmand1DR-20201110,jo,1,264,8,30,Stop,Left,50,NoStart,0,High
jou-cmand1DR-20201110,jo,1,265,8,31,Go,Right,0,NoStart,0,Low
jou-cmand1DR-20201110,jo,1,266,8,32,Go,Right,0,NoStart,0,Low
jou-cmand1DR-20201110,jo,1,267,8,33,Stop,Left,50,NoStart,0,High
jou-cmand1DR-20201110,jo,1,268,8,34,Go,Left,0,NoStart,0,High
jou-cmand1DR-20201110,jo,1,269,8,35,Stop,Left,50,NoStart,0,High
jou-cmand1DR-20201110,jo,1,270,8,36,Stop,Right,50,NoStart,0,Low
jou-cmand1DR-20201110,jo,1,271,8,37,Stop,Right,50,NoStart,0,Low
jou-cmand1DR-20201110,jo,1,272,8,38,Go,Left,0,NoStart,0,High
jou-cmand1DR-20201110,jo,1,273,8,39,Go,Right,0,NoStart,0,Low
jou-cmand1DR-20201110,jo,1,274,8,40,Stop,Right,50,NoStart,0,Low
jou-cmand1DR-20201110,jo,1,275,8,41,Go,Left,0,NoStart,0,High
jou-cmand1DR-20201110,jo,1,276,8,42,Go,Right,0,NoStart,0,Low
jou-cmand1DR-20201110,jo,1,277,8,43,Go,Left,0,NoStart,0,High
jou-cmand1DR-20201110,jo,1,278,8,44,Go,Left,0,NoStart,0,High
jou-cmand1DR-20201110,jo,1,279,8,45,Stop,Right,50,NoStart,0,Low
jou-cmand1DR-20201110,jo,1,280,8,46,Go,Left,0,NoStart,0,High
jou-cmand1DR-20201110,jo,1,281,8,47,Stop,Right,50,NoStart,0,Low
jou-cmand1DR-20201110,jo,1,282,8,48,Go,Left,0,NoStart,0,High
jou-cmand1DR-20201110,jo,1,283,8,49,Go,Left,0,NoStart,0,High
jou-cmand1DR-20201110,jo,1,284,8,50,Go,Left,0,NoStart,0,High
jou-cmand1DR-20201110,jo,1,285,8,51,Stop,Left,50,NoStart,0,High
jou-cmand1DR-20201110,jo,1,286,8,52,Go,Left,0,NoStart,0,High
jou-cmand1DR-20201110,jo,1,287,8,53,Go,Left,0,NoStart,0,High
jou-cmand1DR-20201110,jo,1,288,8,54,Stop,Right,50,NoStart,0,Low
jou-cmand1DR-20201110,jo,1,289,8,55,Go,Right,0,NoStart,0,Low
jou-cmand1DR-20201110,jo,1,290,8,56,Go,Left,0,NoStart,0,High
jou-cmand1DR-20201110,jo,1,291,8,57,Stop,Right,50,NoStart,0,Low
jou-cmand1DR-20201110,jo,1,292,8,58,Go,Right,0,NoStart,0,Low
jou-cmand1DR-20201110,jo,1,293,8,59,Go,Right,0,NoStart,0,Low
jou-cmand1DR-20201110,jo,1,294,8,60,Stop,Right,50,NoStart,0,Low
jou-cmand1DR-20201110,jo,1,295,8,61,Go,Right,0,NoStart,0,Low
jou-cmand1DR-20201110,jo,1,296,8,62,Go,Right,0,NoStart,0,Low
jou-cmand1DR-20201110,jo,1,297,8,63,Go,Left,0,NoStart,0,High
jou-cmand1DR-20201110,jo,1,298,8,64,Stop,Right,50,NoStart,0,Low
jou-cmand1DR-20201110,jo,1,299,8,65,Stop,Right,50,NoStart,0,Low
jou-cmand1DR-20201110,jo,1,300,8,66,Stop,Right,50,NoStart,0,Low
jou-cmand1DR-20201110,jo,1,301,8,67,Go,Left,0,NoStart,0,High
jou-cmand1DR-20201110,jo,1,302,8,68,Stop,Left,50,NoStart,0,High
jou-cmand1DR-20201110,jo,1,303,8,69,Stop,Left,50,NoStart,0,High
jou-cmand1DR-20201110,jo,1,304,8,70,Go,Right,0,NoStart,0,Low
jou-cmand1DR-20201110,jo,1,305,8,71,Go,Left,0,NoStart,0,High
jou-cmand1DR-20201110,jo,1,306,8,72,Stop,Left,50,NoStart,0,High
jou-cmand1DR-20201110,jo,1,307,8,73,Go,Left,0,NoStart,0,High
jou-cmand1DR-20201110,jo,1,308,8,74,Go,Right,0,NoStart,0,Low
jou-cmand1DR-20201110,jo,1,309,8,75,Stop,Left,50,NoStart,0,High
jou-cmand1DR-20201110,jo,1,310,8,76,Go,Left,0,NoStart,0,High
jou-cmand1DR-20201110,jo,1,311,8,77,Go,Left,0,NoStart,0,High
jou-cmand1DR-20201110,jo,1,312,8,78,Go,Left,0,NoStart,0,High
jou-cmand1DR-20201110,jo,1,313,8,79,Stop,Left,50,NoStart,0,High
jou-cmand1DR-20201110,jo,1,314,8,80,Go,Right,0,NoStart,0,Low
jou-cmand1DR-20201110,jo,1,315,8,81,Go,Right,0,NoStart,0,Low
jou-cmand1DR-20201110,jo,1,316,8,82,Go,Right,0,NoStart,0,Low
jou-cmand1DR-20201110,jo,1,317,8,83,Go,Right,0,NoStart,0,Low
jou-cmand1DR-20201110,jo,1,318,8,84,Go,Right,0,NoStart,0,Low
jou-cmand1DR-20201110,jo,1,319,8,85,Go,Right,0,NoStart,0,Low
jou-cmand1DR-20201110,jo,1,320,8,86,Stop,Left,50,NoStart,0,High
jou-cmand1DR-20201110,jo,1,321,8,87,Go,Left,0,NoStart,0,High
jou-cmand1DR-20201110,jo,1,322,8,88,Stop,Right,50,NoStart,0,Low
jou-cmand1DR-20201110,jo,1,323,8,89,Go,Right,0,NoStart,0,Low
jou-cmand1DR-20201110,jo,1,324,8,90,Go,Right,0,NoStart,0,Low
jou-cmand1DR-20201110,jo,1,325,8,91,Stop,Right,50,NoStart,0,Low
jou-cmand1DR-20201110,jo,1,326,8,92,Go,Left,0,NoStart,0,High
jou-cmand1DR-20201110,jo,1,327,8,93,Go,Right,0,NoStart,0,Low
jou-cmand1DR-20201110,jo,1,328,8,94,Stop,Right,50,NoStart,0,Low
jou-cmand1DR-20201110,jo,1,329,8,95,Stop,Left,50,NoStart,0,High
jou-cmand1DR-20201110,jo,1,330,8,96,Stop,Right,50,NoStart,0,Low
jou-cmand1DR-20201110,jo,1,331,8,97,Go,Left,0,NoStart,0,High
jou-cmand1DR-20201110,jo,1,332,8,98,Go,Left,0,NoStart,0,High
jou-cmand1DR-20201110,jo,1,333,8,99,Go,Left,0,NoStart,0,High
jou-cmand1DR-20201110,jo,1,334,8,100,Go,Left,0,NoStart,0,High
jou-cmand1DR-20201110,jo,1,335,8,101,Stop,Left,50,NoStart,0,High
jou-cmand1DR-20201110,jo,1,336,8,102,Go,Left,0,NoStart,0,High
jou-cmand1DR-20201110,jo,1,337,8,103,Stop,Right,50,NoStart,0,Low
jou-cmand1DR-20201110,jo,1,338,8,104,Go,Right,0,NoStart,0,Low
jou-cmand1DR-20201110,jo,1,339,8,105,Go,Left,0,NoStart,0,High
jou-cmand1DR-20201110,jo,1,340,8,106,Go,Right,0,NoStart,0,Low
jou-cmand1DR-20201110,jo,1,341,8,107,Go,Right,0,NoStart,0,Low
jou-cmand1DR-20201110,jo,1,342,8,108,Go,Left,0,NoStart,0,High
jou-cmand1DR-20201110,jo,1,343,8,109,Stop,Right,50,NoStart,0,Low
jou-cmand1DR-20201110,jo,1,344,8,110,Stop,Left,50,NoStart,0,High
jou-cmand1DR-20201110,jo,1,345,8,111,Stop,Right,50,NoStart,0,Low
jou-cmand1DR-20201110,jo,1,346,8,112,Stop,Left,50,NoStart,0,High
jou-cmand1DR-20201110,jo,1,347,8,113,Go,Right,0,NoStart,0,Low
jou-cmand1DR-20201110,jo,1,348,8,114,Stop,Left,50,NoStart,0,High
jou-cmand1DR-20201110,jo,1,349,8,115,Go,Right,0,NoStart,0,Low
jou-cmand1DR-20201110,jo,1,350,8,116,Stop,Right,50,NoStart,0,Low
jou-cmand1DR-20201110,jo,1,351,8,117,Stop,Left,50,NoStart,0,High
jou-cmand1DR-20201110,jo,1,352,8,118,Go,Right,0,NoStart,0,Low
jou-cmand1DR-20201110,jo,1,353,8,119,Go,Left,0,NoStart,0,High
jou-cmand1DR-20201110,jo,1,354,8,120,Go,Left,0,NoStart,0,High
jou-cmand1DR-20201110,jo,1,355,8,121,Stop,Right,50,NoStart,0,Low
jou-cmand1DR-20201110,jo,1,356,8,122,Go,Left,0,NoStart,0,High
jou-cmand1DR-20201110,jo,1,357,8,123,Go,Right,0,NoStart,0,Low
jou-cmand1DR-20201110,jo,1,358,8,124,Stop,Right,50,NoStart,0,Low
jou-cmand1DR-20201110,jo,1,359,8,125,Stop,Left,50,NoStart,0,High
jou-cmand1DR-20201110,jo,1,360,8,126,Go,Left,0,NoStart,0,High
jou-cmand1DR-20201110,jo,1,361,8,127,Go,Right,0,NoStart,0,Low
jou-cmand1DR-20201110,jo,1,362,8,128,Go,Left,0,NoStart,0,High
jou-cmand1DR-20201110,jo,1,363,8,129,Go,Right,0,NoStart,0,Low
jou-cmand1DR-20201110,jo,1,364,8,130,Go,Right,0,NoStart,0,Low
jou-cmand1DR-20201110,jo,1,365,8,131,Go,Left,0,NoStart,0,High
jou-cmand1DR-20201110,jo,1,366,8,132,Go,Right,0,NoStart,0,Low
jou-cmand1DR-20201110,jo,1,367,8,133,Stop,Left,50,NoStart,0,High
jou-cmand1DR-20201110,jo,1,368,8,134,Stop,Right,50,NoStart,0,Low
jou-cmand1DR-20201110,jo,1,369,8,135,Go,Right,0,NoStart,0,Low
jou-cmand1DR-20201110,jo,1,370,8,136,Go,Left,0,NoStart,0,High
jou-cmand1DR-20201110,jo,1,371,8,137,Stop,Right,50,NoStart,0,Low
jou-cmand1DR-20201110,jo,1,372,8,138,Stop,Left,50,NoStart,0,High
jou-cmand1DR-20201110,jo,1,373,8,139,Go,Right,0,NoStart,0,Low
jou-cmand1DR-20201110,jo,1,374,8,140,Stop,Left,50,NoStart,0,High
jou-cmand1DR-20201110,jo,1,375,8,141,Stop,Right,50,NoStart,0,Low
jou-cmand1DR-20201110,jo,1,376,8,142,Go,Left,0,NoStart,0,High
jou-cmand1DR-20201110,jo,1,377,8,143,Go,Right,0,NoStart,0,Low
jou-cmand1DR-20201110,jo,1,378,8,144,Stop,Left,50,NoStart,0,High
jou-cmand1DR-20201110,jo,1,379,8,145,Stop,Right,50,NoStart,0,Low
jou-cmand1DR-20201110,jo,1,380,8,146,Stop,Left,50,NoStart,0,High
jou-cmand1DR-20201110,jo,1,381,8,147,Go,Right,0,NoStart,0,Low
jou-cmand1DR-20201110,jo,1,382,8,148,Go,Right,0,NoStart,0,Low
jou-cmand1DR-20201110,jo,1,383,8,149,Stop,Left,50,NoStart,0,High
jou-cmand1DR-20201110,jo,1,384,8,150,Go,Right,0,NoStart,0,Low
jou-cmand1DR-20201110,jo,1,385,8,151,Go,Right,0,NoStart,0,Low
jou-cmand1DR-20201110,jo,1,386,8,152,Go,Left,0,NoStart,0,High
jou-cmand1DR-20201110,jo,1,387,8,153,Go,Left,0,NoStart,0,High
jou-cmand1DR-20201110,jo,1,388,8,154,Stop,Left,50,NoStart,0,High
jou-cmand1DR-20201110,jo,1,389,8,155,Stop,Left,50,NoStart,0,High
jou-cmand1DR-20201110,jo,1,390,8,156,Go,Right,0,NoStart,0,Low
jou-cmand1DR-20201110,jo,1,391,8,157,Go,Left,0,NoStart,0,High
jou-cmand1DR-20201110,jo,1,392,8,158,Go,Left,0,NoStart,0,High
jou-cmand1DR-20201110,jo,1,393,8,159,Go,Right,0,NoStart,0,Low
jou-cmand1DR-20201110,jo,1,394,8,160,Go,Right,0,NoStart,0,Low
jou-cmand1DR-20201110,jo,1,395,8,161,Stop,Left,50,NoStart,0,High
jou-cmand1DR-20201110,jo,1,396,8,162,Go,Left,0,NoStart,0,High
jou-cmand1DR-20201110,jo,1,397,8,163,Go,Right,0,NoStart,0,Low
jou-cmand1DR-20201110,jo,1,398,8,164,Stop,Right,50,NoStart,0,Low
jou-cmand1DR-20201110,jo,1,399,8,165,Stop,Left,50,NoStart,0,High
jou-cmand1DR-20201110,jo,1,400,8,166,Go,Right,0,NoStart,0,Low
jou-cmand1DR-20201110,jo,1,401,8,167,Go,Left,0,NoStart,0,High
jou-cmand1DR-20201110,jo,1,402,8,168,Go,Right,0,NoStart,0,Low
jou-cmand1DR-20201110,jo,1,403,8,169,Stop,Right,50,NoStart,0,Low
jou-cmand1DR-20201110,jo,1,404,8,170,Go,Right,0,NoStart,0,Low
jou-cmand1DR-20201110,jo,1,405,8,171,Go,Right,0,NoStart,0,Low
jou-cmand1DR-20201110,jo,1,406,8,172,Go,Left,0,NoStart,0,High
jou-cmand1DR-20201110,jo,1,407,8,173,Go,Left,0,NoStart,0,High
jou-cmand1DR-20201110,jo,1,408,8,174,Stop,Right,50,NoStart,0,Low
jou-cmand1DR-20201110,jo,1,409,8,175,Go,Left,0,NoStart,0,High
jou-cmand1DR-20201110,jo,1,410,8,176,Stop,Left,50,NoStart,0,High
jou-cmand1DR-20201110,jo,1,411,8,177,Stop,Right,50,NoStart,0,Low
jou-cmand1DR-20201110,jo,1,412,8,178,Go,Left,0,NoStart,0,High
jou-cmand1DR-20201110,jo,1,413,8,179,Go,Right,0,NoStart,0,Low
jou-cmand1DR-20201110,jo,1,414,8,180,Go,Right,0,NoStart,0,Low
jou-cmand1DR-20201110,jo,1,415,8,181,Go,Left,0,NoStart,0,High
jou-cmand1DR-20201110,jo,1,416,8,182,Go,Right,0,NoStart,0,Low
jou-cmand1DR-20201110,jo,1,417,8,183,Go,Left,0,NoStart,0,High
jou-cmand1DR-20201110,jo,1,418,8,184,Stop,Right,50,NoStart,0,Low
jou-cmand1DR-20201110,jo,1,419,8,185,Stop,Left,50,NoStart,0,High
jou-cmand1DR-20201110,jo,1,420,8,186,Stop,Left,50,NoStart,0,High
jou-cmand1DR-20201110,jo,1,421,8,187,Go,Left,0,NoStart,0,High
jou-cmand1DR-20201110,jo,1,422,8,188,Go,Right,0,NoStart,0,Low
jou-cmand1DR-20201110,jo,1,423,8,189,Go,Left,0,NoStart,0,High
jou-cmand1DR-20201110,jo,1,424,8,190,Go,Right,0,NoStart,0,Low
jou-cmand1DR-20201110,jo,1,425,8,191,Stop,Right,50,NoStart,0,Low
jou-cmand1DR-20201110,jo,1,426,8,192,Stop,Left,50,NoStart,0,High
jou-cmand1DR-20201110,jo,1,427,8,193,Stop,Left,50,NoStart,0,High
jou-cmand1DR-20201110,jo,1,428,8,194,Go,Left,0,NoStart,0,High
jou-cmand1DR-20201110,jo,1,429,8,195,Go,Right,0,NoStart,0,Low
jou-cmand1DR-20201110,jo,1,430,8,196,Go,Right,0,NoStart,0,Low
jou-cmand1DR-20201110,jo,1,431,8,197,Go,Right,0,NoStart,0,Low
jou-cmand1DR-20201110,jo,1,432,8,198,Go,Right,0,NoStart,0,Low
jou-cmand1DR-20201110,jo,1,433,8,199,Stop,Right,50,NoStart,0,Low
jou-cmand1DR-20201110,jo,1,434,8,200,Go,Left,0,NoStart,0,High
jou-cmand1DR-20201110,jo,1,435,8,201,Go,Left,0,NoStart,0,High
jou-cmand1DR-20201110,jo,1,436,8,202,Go,Right,0,NoStart,0,Low
jou-cmand1DR-20201110,jo,1,437,8,203,Stop,Right,50,NoStart,0,Low
jou-cmand1DR-20201110,jo,1,438,8,204,Go,Left,0,NoStart,0,High
jou-cmand1DR-20201110,jo,1,439,8,205,Go,Left,0,NoStart,0,High
jou-cmand1DR-20201110,jo,1,440,8,206,Go,Right,0,NoStart,0,Low
jou-cmand1DR-20201110,jo,1,441,8,207,Go,Left,0,NoStart,0,High
jou-cmand1DR-20201110,jo,1,442,8,208,Go,Left,0,NoStart,0,High
jou-cmand1DR-20201110,jo,1,443,8,209,Go,Right,0,NoStart,0,Low
jou-cmand1DR-20201110,jo,1,444,8,210,Stop,Right,50,NoStart,0,Low
jou-cmand1DR-20201110,jo,1,445,8,211,Stop,Left,50,NoStart,0,High
jou-cmand1DR-20201110,jo,1,446,8,212,Go,Left,0,NoStart,0,High
jou-cmand1DR-20201110,jo,1,447,8,213,Stop,Left,50,NoStart,0,High
jou-cmand1DR-20201110,jo,1,448,8,214,Stop,Left,50,NoStart,0,High
jou-cmand1DR-20201110,jo,1,449,8,215,Stop,Left,50,NoStart,0,High
jou-cmand1DR-20201110,jo,1,450,8,216,Stop,Right,50,NoStart,0,Low
jou-cmand1DR-20201110,jo,1,451,8,217,Go,Left,0,NoStart,0,High
jou-cmand1DR-20201110,jo,1,452,8,218,Go,Left,0,NoStart,0,High
jou-cmand1DR-20201110,jo,1,453,8,219,Go,Right,0,NoStart,0,Low
jou-cmand1DR-20201110,jo,1,454,8,220,Go,Right,0,NoStart,0,Low
jou-cmand1DR-20201110,jo,1,455,8,221,Go,Right,0,NoStart,0,Low
jou-cmand1DR-20201110,jo,1,456,8,222,Stop,Right,50,NoStart,0,Low
jou-cmand1DR-20201110,jo,1,457,8,223,Go,Right,0,NoStart,0,Low
jou-cmand1DR-20201110,jo,1,458,8,224,Go,Right,0,NoStart,0,Low
jou-cmand1DR-20201110,jo,1,459,8,225,Go,Left,0,NoStart,0,High
jou-cmand1DR-20201110,jo,1,460,8,226,Go,Right,0,NoStart,0,Low
jou-cmand1DR-20201110,jo,1,461,8,227,Stop,Right,50,NoStart,0,Low
jou-cmand1DR-20201110,jo,1,462,8,228,Go,Left,0,NoStart,0,High
jou-cmand1DR-20201110,jo,1,463,8,229,Go,Right,0,NoStart,0,Low
jou-cmand1DR-20201110,jo,1,464,8,230,Go,Right,0,NoStart,0,Low
jou-cmand1DR-20201110,jo,1,465,8,231,Stop,Right,50,NoStart,0,Low
jou-cmand1DR-20201110,jo,1,466,8,232,Go,Right,0,NoStart,0,Low
jou-cmand1DR-20201110,jo,1,467,8,233,Stop,Right,50,NoStart,0,Low
jou-cmand1DR-20201110,jo,1,468,8,234,Go,Right,0,NoStart,0,Low
jou-cmand1DR-20201110,jo,1,469,8,235,Go,Left,0,NoStart,0,High
jou-cmand1DR-20201110,jo,1,470,8,236,Go,Right,0,NoStart,0,Low
jou-cmand1DR-20201110,jo,1,471,8,237,Go,Right,0,NoStart,0,Low
jou-cmand1DR-20201110,jo,1,472,8,238,Go,Left,0,NoStart,0,High
jou-cmand1DR-20201110,jo,1,473,8,239,Go,Right,0,NoStart,0,Low
jou-cmand1DR-20201110,jo,1,474,8,240,Go,Left,0,NoStart,0,High
jou-cmand1DR-20201110,jo,1,475,8,241,Stop,Left,50,NoStart,0,High
jou-cmand1DR-20201110,jo,1,476,8,242,Go,Right,0,NoStart,0,Low
jou-cmand1DR-20201110,jo,1,477,8,243,Go,Right,0,NoStart,0,Low
jou-cmand1DR-20201110,jo,1,478,8,244,Go,Right,0,NoStart,0,Low
jou-cmand1DR-20201110,jo,1,479,8,245,Stop,Left,50,NoStart,0,High
jou-cmand1DR-20201110,jo,1,480,8,246,Stop,Left,50,NoStart,0,High
jou-cmand1DR-20201110,jo,1,481,8,247,Go,Right,0,NoStart,0,Low
jou-cmand1DR-20201110,jo,1,482,8,248,Stop,Left,50,NoStart,0,High
jou-cmand1DR-20201110,jo,1,483,8,249,Go,Right,0,NoStart,0,Low
jou-cmand1DR-20201110,jo,1,484,8,250,Stop,Left,50,NoStart,0,High
jou-cmand1DR-20201110,jo,1,485,8,251,Go,Left,0,NoStart,0,High
jou-cmand1DR-20201110,jo,1,486,8,252,Go,Left,0,NoStart,0,High
jou-cmand1DR-20201110,jo,1,487,8,253,Go,Right,0,NoStart,0,Low
jou-cmand1DR-20201110,jo,1,488,8,254,Go,Left,0,NoStart,0,High
jou-cmand1DR-20201110,jo,1,489,8,255,Stop,Left,50,NoStart,0,High
jou-cmand1DR-20201110,jo,1,490,8,256,Go,Right,0,NoStart,0,Low
jou-cmand1DR-20201110,jo,1,491,8,257,Stop,Right,50,NoStart,0,Low
jou-cmand1DR-20201110,jo,1,492,8,258,Go,Right,0,NoStart,0,Low
jou-cmand1DR-20201110,jo,1,493,8,259,Go,Left,0,NoStart,0,High
jou-cmand1DR-20201110,jo,1,494,8,260,Go,Left,0,NoStart,0,High
jou-cmand1DR-20201110,jo,1,495,8,261,Go,Left,0,NoStart,0,High
jou-cmand1DR-20201110,jo,1,496,8,262,Stop,Left,50,NoStart,0,High
jou-cmand1DR-20201110,jo,1,497,8,263,Stop,Left,50,NoStart,0,High
jou-cmand1DR-20201110,jo,1,498,8,264,Go,Left,0,NoStart,0,High
jou-cmand1DR-20201110,jo,1,499,8,265,Stop,Right,50,NoStart,0,Low
jou-cmand1DR-20201110,jo,1,500,8,266,Go,Left,0,NoStart,0,High
jou-cmand1DR-20201110,jo,1,501,8,267,Go,Right,0,NoStart,0,Low
jou-cmand1DR-20201110,jo,1,502,8,268,Go,Right,0,NoStart,0,Low
jou-cmand1DR-20201110,jo,1,503,8,269,Go,Left,0,NoStart,0,High
jou-cmand1DR-20201110,jo,1,504,8,270,Stop,Right,50,NoStart,0,Low
jou-cmand1DR-20201110,jo,1,505,8,271,Go,Right,0,NoStart,0,Low
jou-cmand1DR-20201110,jo,1,506,8,272,Stop,Left,50,NoStart,0,High
jou-cmand1DR-20201110,jo,1,507,8,273,Go,Right,0,NoStart,0,Low
jou-cmand1DR-20201110,jo,1,508,8,274,Stop,Left,50,NoStart,0,High
jou-cmand1DR-20201110,jo,1,509,8,275,Go,Right,0,NoStart,0,Low
jou-cmand1DR-20201110,jo,1,510,8,276,Go,Left,0,NoStart,0,High
jou-cmand1DR-20201110,jo,1,511,8,277,Go,Right,0,NoStart,0,Low
jou-cmand1DR-20201110,jo,1,512,8,278,Go,Left,0,NoStart,0,High
jou-cmand1DR-20201110,jo,1,513,8,279,Go,Left,0,NoStart,0,High
jou-cmand1DR-20201110,jo,1,514,8,280,Stop,Right,50,NoStart,0,Low
jou-cmand1DR-20201110,jo,1,515,8,281,Go,Left,0,NoStart,0,High
jou-cmand1DR-20201110,jo,1,516,8,282,Go,Right,0,NoStart,0,Low
jou-cmand1DR-20201110,jo,1,517,8,283,Stop,Left,50,NoStart,0,High
jou-cmand1DR-20201110,jo,1,518,8,284,Go,Left,0,NoStart,0,High
jou-cmand1DR-20201110,jo,1,519,8,285,Go,Left,0,NoStart,0,High
jou-cmand1DR-20201110,jo,1,520,8,286,Go,Left,0,NoStart,0,High
jou-cmand1DR-20201110,jo,1,521,8,287,Stop,Right,50,NoStart,0,Low
jou-cmand1DR-20201110,jo,1,522,8,288,Go,Left,0,NoStart,0,High
jou-cmand1DR-20201110,jo,1,523,8,289,Go,Right,0,NoStart,0,Low
jou-cmand1DR-20201110,jo,1,524,8,290,Go,Left,0,NoStart,0,High
jou-cmand1DR-20201110,jo,1,525,8,291,Go,Left,0,NoStart,0,High
jou-cmand1DR-20201110,jo,1,526,8,292,Go,Right,0,NoStart,0,Low
jou-cmand1DR-20201110,jo,1,527,8,293,Stop,Right,50,NoStart,0,Low
jou-cmand1DR-20201110,jo,1,528,8,294,Go,Left,0,NoStart,0,High
jou-cmand1DR-20201110,jo,1,529,8,295,Go,Right,0,NoStart,0,Low
jou-cmand1DR-20201110,jo,1,530,8,296,Stop,Right,50,NoStart,0,Low
jou-cmand1DR-20201110,jo,1,531,8,297,Go,Right,0,NoStart,0,Low
jou-cmand1DR-20201110,jo,1,532,8,298,Go,Right,0,NoStart,0,Low
jou-cmand1DR-20201110,jo,1,533,8,299,Stop,Right,50,NoStart,0,Low
jou-cmand1DR-20201110,jo,1,534,8,300,Stop,Left,50,NoStart,0,High
jou-cmand1DR-20201110,jo,1,535,8,301,Stop,Right,50,NoStart,0,Low
jou-cmand1DR-20201110,jo,1,536,8,302,Go,Right,0,NoStart,0,Low
jou-cmand1DR-20201110,jo,1,537,8,303,Stop,Left,50,NoStart,0,High
jou-cmand1DR-20201110,jo,1,538,8,304,Stop,Left,50,NoStart,0,High
jou-cmand1DR-20201110,jo,1,539,8,305,Go,Right,0,NoStart,0,Low
jou-cmand1DR-20201110,jo,1,540,8,306,Go,Left,0,NoStart,0,High
jou-cmand1DR-20201110,jo,1,541,8,307,Stop,Right,50,NoStart,0,Low
jou-cmand1DR-20201110,jo,1,542,8,308,Go,Left,0,NoStart,0,High
jou-cmand1DR-20201110,jo,1,543,8,309,Go,Right,0,NoStart,0,Low
jou-cmand1DR-20201110,jo,1,544,8,310,Stop,Left,50,NoStart,0,High
jou-cmand1DR-20201110,jo,1,545,8,311,Go,Left,0,NoStart,0,High
jou-cmand1DR-20201110,jo,1,546,8,312,Go,Left,0,NoStart,0,High
jou-cmand1DR-20201110,jo,1,547,8,313,Stop,Right,50,NoStart,0,Low
jou-cmand1DR-20201110,jo,1,548,8,314,Go,Left,0,NoStart,0,High
jou-cmand1DR-20201110,jo,1,549,8,315,Go,Left,0,NoStart,0,High
jou-cmand1DR-20201110,jo,1,550,8,316,Go,Right,0,NoStart,0,Low
jou-cmand1DR-20201110,jo,1,551,8,317,Go,Left,0,NoStart,0,High
jou-cmand1DR-20201110,jo,1,552,8,318,Stop,Right,50,NoStart,0,Low
jou-cmand1DR-20201110,jo,1,553,8,319,Go,Right,0,NoStart,0,Low
jou-cmand1DR-20201110,jo,1,554,8,320,Stop,Right,50,NoStart,0,Low
jou-cmand1DR-20201110,jo,1,555,8,321,Go,Right,0,NoStart,0,Low
jou-cmand1DR-20201110,jo,1,556,8,322,Stop,Right,50,NoStart,0,Low
jou-cmand1DR-20201110,jo,1,557,8,323,Stop,Left,50,NoStart,0,High
jou-cmand1DR-20201110,jo,1,558,8,324,Go,Right,0,NoStart,0,Low
jou-cmand1DR-20201110,jo,1,559,8,325,Go,Right,0,NoStart,0,Low
jou-cmand1DR-20201110,jo,1,560,8,326,Stop,Left,50,NoStart,0,High
jou-cmand1DR-20201110,jo,1,561,8,327,Stop,Left,50,NoStart,0,High
jou-cmand1DR-20201110,jo,1,562,8,328,Go,Left,0,NoStart,0,High
jou-cmand1DR-20201110,jo,1,563,8,329,Go,Left,0,NoStart,0,High
jou-cmand1DR-20201110,jo,1,564,8,330,Go,Left,0,NoStart,0,High
jou-cmand1DR-20201110,jo,1,565,8,331,Go,Right,0,NoStart,0,Low
jou-cmand1DR-20201110,jo,1,566,8,332,Go,Right,0,NoStart,0,Low
jou-cmand1DR-20201110,jo,1,567,8,333,Stop,Right,50,NoStart,0,Low
jou-cmand1DR-20201110,jo,1,568,8,334,Stop,Right,50,NoStart,0,Low
jou-cmand1DR-20201110,jo,1,569,8,335,Go,Right,0,NoStart,0,Low
jou-cmand1DR-20201110,jo,1,570,8,336,Stop,Right,50,NoStart,0,Low
jou-cmand1DR-20201110,jo,1,571,8,337,Go,Right,0,NoStart,0,Low
jou-cmand1DR-20201110,jo,1,572,8,338,Go,Right,0,NoStart,0,Low
jou-cmand1DR-20201110,jo,1,573,8,339,Go,Left,0,NoStart,0,High
jou-cmand1DR-20201110,jo,1,574,8,340,Stop,Right,50,NoStart,0,Low
jou-cmand1DR-20201110,jo,1,575,8,341,Stop,Left,50,NoStart,0,High
jou-cmand1DR-20201110,jo,1,576,8,342,Stop,Right,50,NoStart,0,Low
jou-cmand1DR-20201110,jo,1,577,8,343,Go,Right,0,NoStart,0,Low
jou-cmand1DR-20201110,jo,1,578,8,344,Go,Right,0,NoStart,0,Low
jou-cmand1DR-20201110,jo,1,579,8,345,Stop,Right,50,NoStart,0,Low
jou-cmand1DR-20201110,jo,1,580,8,346,Stop,Left,50,NoStart,0,High
jou-cmand1DR-20201110,jo,1,581,8,347,Go,Right,0,NoStart,0,Low
jou-cmand1DR-20201110,jo,1,582,8,348,Stop,Left,50,NoStart,0,High
jou-cmand1DR-20201110,jo,1,583,8,349,Stop,Left,50,NoStart,0,High
jou-cmand1DR-20201110,jo,1,584,8,350,Stop,Left,50,NoStart,0,High
jou-cmand1DR-20201110,jo,1,585,8,351,Go,Right,0,NoStart,0,Low
jou-cmand1DR-20201110,jo,1,586,8,352,Go,Right,0,NoStart,0,Low
jou-cmand1DR-20201110,jo,1,587,8,353,Go,Right,0,NoStart,0,Low
jou-cmand1DR-20201110,jo,1,588,8,354,Go,Left,0,NoStart,0,High
jou-cmand1DR-20201110,jo,1,589,8,355,Go,Left,0,NoStart,0,High
jou-cmand1DR-20201110,jo,1,590,8,356,Go,Left,0,NoStart,0,High
jou-cmand1DR-20201110,jo,1,591,8,357,Go,Right,0,NoStart,0,Low
jou-cmand1DR-20201110,jo,1,592,8,358,Go,Left,0,NoStart,0,High
jou-cmand1DR-20201110,jo,1,593,8,359,Stop,Right,50,NoStart,0,Low
jou-cmand1DR-20201110,jo,1,594,8,360,Go,Right,0,NoStart,0,Low
jou-cmand1DR-20201110,jo,1,595,8,361,Go,Right,0,NoStart,0,Low
jou-cmand1DR-20201110,jo,1,596,8,362,Stop,Left,50,NoStart,0,High
jou-cmand1DR-20201110,jo,1,597,8,363,Stop,Right,50,NoStart,0,Low
jou-cmand1DR-20201110,jo,1,598,8,364,Go,Right,0,NoStart,0,Low
jou-cmand1DR-20201110,jo,1,599,8,365,Stop,Right,50,NoStart,0,Low
jou-cmand1DR-20201110,jo,1,600,8,366,Go,Left,0,NoStart,0,High
jou-cmand1DR-20201110,jo,1,601,8,367,Go,Right,0,NoStart,0,Low
jou-cmand1DR-20201110,jo,1,602,8,368,Go,Left,0,NoStart,0,High
jou-cmand1DR-20201110,jo,1,603,8,369,Go,Left,0,NoStart,0,High
jou-cmand1DR-20201110,jo,1,604,8,370,Go,Left,0,NoStart,0,High
jou-cmand1DR-20201110,jo,1,605,8,371,Stop,Right,50,NoStart,0,Low
jou-cmand1DR-20201110,jo,1,606,8,372,Stop,Right,50,NoStart,0,Low
jou-cmand1DR-20201110,jo,1,607,8,373,Go,Right,0,NoStart,0,Low
jou-cmand1DR-20201110,jo,1,608,8,374,Go,Left,0,NoStart,0,High
jou-cmand1DR-20201110,jo,1,609,8,375,Stop,Left,50,NoStart,0,High
jou-cmand1DR-20201110,jo,1,610,8,376,Go,Right,0,NoStart,0,Low
jou-cmand1DR-20201110,jo,1,611,8,377,Go,Right,0,NoStart,0,Low
jou-cmand1DR-20201110,jo,1,612,8,378,Stop,Left,50,NoStart,0,High
jou-cmand1DR-20201110,jo,1,613,8,379,Go,Left,0,NoStart,0,High
jou-cmand1DR-20201110,jo,1,614,8,380,Stop,Right,50,NoStart,0,Low
jou-cmand1DR-20201110,jo,1,615,8,381,Go,Left,0,NoStart,0,High
jou-cmand1DR-20201110,jo,1,616,8,382,Stop,Left,50,NoStart,0,High
jou-cmand1DR-20201110,jo,1,617,8,383,Go,Left,0,NoStart,0,High
jou-cmand1DR-20201110,jo,1,618,8,384,Go,Right,0,NoStart,0,Low
jou-cmand1DR-20201110,jo,1,619,8,385,Stop,Left,50,NoStart,0,High
jou-cmand1DR-20201110,jo,1,620,8,386,Go,Left,0,NoStart,0,High
jou-cmand1DR-20201110,jo,1,621,8,387,Go,Left,0,NoStart,0,High
jou-cmand1DR-20201110,jo,1,622,8,388,Go,Right,0,NoStart,0,Low
jou-cmand1DR-20201110,jo,1,623,8,389,Stop,Right,50,NoStart,0,Low
jou-cmand1DR-20201110,jo,1,624,8,390,Stop,Right,50,NoStart,0,Low
jou-cmand1DR-20201110,jo,1,625,8,391,Go,Right,0,NoStart,0,Low
jou-cmand1DR-20201110,jo,1,626,8,392,Go,Left,0,NoStart,0,High
jou-cmand1DR-20201110,jo,1,627,8,393,Go,Left,0,NoStart,0,High
jou-cmand1DR-20201110,jo,1,628,8,394,Stop,Left,50,NoStart,0,High
jou-cmand1DR-20201110,jo,1,629,8,395,Stop,Left,50,NoStart,0,High
jou-cmand1DR-20201110,jo,1,630,8,396,Stop,Left,50,NoStart,0,High
jou-cmand1DR-20201110,jo,1,631,8,397,Stop,Left,50,NoStart,0,High
jou-cmand1DR-20201110,jo,1,632,8,398,Stop,Left,50,NoStart,0,High
jou-cmand1DR-20201110,jo,1,633,8,399,Go,Right,0,NoStart,0,Low
jou-cmand1DR-20201110,jo,1,634,8,400,Go,Left,0,NoStart,0,High
jou-cmand1DR-20201110,jo,1,635,8,401,Go,Left,0,NoStart,0,High
jou-cmand1DR-20201110,jo,1,636,8,402,Stop,Left,50,NoStart,0,High
jou-cmand1DR-20201110,jo,1,637,8,403,Go,Right,0,NoStart,0,Low
jou-cmand1DR-20201110,jo,1,638,8,404,Stop,Left,50,NoStart,0,High
jou-cmand1DR-20201110,jo,1,639,8,405,Stop,Right,50,NoStart,0,Low
jou-cmand1DR-20201110,jo,1,640,8,406,Go,Right,0,NoStart,0,Low
jou-cmand1DR-20201110,jo,1,641,8,407,Stop,Right,50,NoStart,0,Low
jou-cmand1DR-20201110,jo,1,642,8,408,Stop,Left,50,NoStart,0,High
jou-cmand1DR-20201110,jo,1,643,8,409,Go,Right,0,NoStart,0,Low
jou-cmand1DR-20201110,jo,1,644,8,410,Stop,Left,50,NoStart,0,High
jou-cmand1DR-20201110,jo,1,645,8,411,Go,Left,0,NoStart,0,High
jou-cmand1DR-20201110,jo,1,646,8,412,Go,Right,0,NoStart,0,Low
jou-cmand1DR-20201110,jo,1,647,8,413,Go,Left,0,NoStart,0,High
jou-cmand1DR-20201110,jo,1,648,8,414,Go,Right,0,NoStart,0,Low
jou-cmand1DR-20201110,jo,1,649,8,415,Stop,Left,50,NoStart,0,High
jou-cmand1DR-20201110,jo,1,650,8,416,Stop,Left,50,NoStart,0,High
jou-cmand1DR-20201110,jo,1,651,8,417,Stop,Left,50,NoStart,0,High
jou-cmand1DR-20201110,jo,1,652,8,418,Go,Right,0,NoStart,0,Low
jou-cmand1DR-20201110,jo,1,653,8,419,Go,Right,0,NoStart,0,Low
jou-cmand1DR-20201110,jo,1,654,8,420,Go,Right,0,NoStart,0,Low
jou-cmand1DR-20201110,jo,1,655,8,421,Stop,Left,50,NoStart,0,High
jou-cmand1DR-20201110,jo,1,656,8,422,Stop,Right,50,NoStart,0,Low
jou-cmand1DR-20201110,jo,1,657,8,423,Go,Right,0,NoStart,0,Low
jou-cmand1DR-20201110,jo,1,658,8,424,Go,Right,0,NoStart,0,Low
jou-cmand1DR-20201110,jo,1,659,8,425,Stop,Left,50,NoStart,0,High
jou-cmand1DR-20201110,jo,1,660,8,426,Stop,Left,50,NoStart,0,High
jou-cmand1DR-20201110,jo,1,661,8,427,Stop,Right,50,NoStart,0,Low
jou-cmand1DR-20201110,jo,1,662,8,428,Go,Left,0,NoStart,0,High
jou-cmand1DR-20201110,jo,1,663,8,429,Stop,Right,50,NoStart,0,Low
jou-cmand1DR-20201110,jo,1,664,8,430,Go,Right,0,NoStart,0,Low
jou-cmand1DR-20201110,jo,1,665,8,431,Go,Left,0,NoStart,0,High
jou-cmand1DR-20201110,jo,1,666,8,432,Go,Left,0,NoStart,0,High
jou-cmand1DR-20201110,jo,1,667,8,433,Go,Left,0,NoStart,0,High
jou-cmand1DR-20201110,jo,1,668,8,434,Stop,Right,50,NoStart,0,Low
jou-cmand1DR-20201110,jo,1,669,8,435,Go,Left,0,NoStart,0,High
jou-cmand1DR-20201110,jo,1,670,8,436,Go,Left,0,NoStart,0,High
jou-cmand1DR-20201110,jo,1,671,8,437,Go,Right,0,NoStart,0,Low
jou-cmand1DR-20201110,jo,1,672,8,438,Go,Left,0,NoStart,0,High
jou-cmand1DR-20201110,jo,1,673,8,439,Go,Right,0,NoStart,0,Low
jou-cmand1DR-20201110,jo,1,674,8,440,Go,Right,0,NoStart,0,Low
jou-cmand1DR-20201110,jo,1,675,8,441,Go,Right,0,NoStart,0,Low
jou-cmand1DR-20201110,jo,1,676,8,442,Go,Left,0,NoStart,0,High
jou-cmand1DR-20201110,jo,1,677,8,443,Stop,Left,50,NoStart,0,High
jou-cmand1DR-20201110,jo,1,678,8,444,Stop,Right,50,NoStart,0,Low
jou-cmand1DR-20201110,jo,1,679,8,445,Stop,Right,50,NoStart,0,Low
jou-cmand1DR-20201110,jo,1,680,8,446,Go,Left,0,NoStart,0,High
jou-cmand1DR-20201110,jo,1,681,8,447,Stop,Left,50,NoStart,0,High
jou-cmand1DR-20201110,jo,1,682,8,448,Stop,Left,50,NoStart,0,High
jou-cmand1DR-20201110,jo,1,683,8,449,Go,Left,0,NoStart,0,High
jou-cmand1DR-20201110,jo,1,684,8,450,Go,Left,0,NoStart,0,High
jou-cmand1DR-20201110,jo,1,685,8,451,Stop,Right,50,NoStart,0,Low
jou-cmand1DR-20201110,jo,1,686,8,452,Stop,Right,50,NoStart,0,Low
jou-cmand1DR-20201110,jo,1,687,8,453,Go,Right,0,NoStart,0,Low
jou-cmand1DR-20201110,jo,1,688,8,454,Go,Left,0,NoStart,0,High
jou-cmand1DR-20201110,jo,1,689,8,455,Go,Left,0,NoStart,0,High
jou-cmand1DR-20201110,jo,1,690,8,456,Go,Right,0,NoStart,0,Low
jou-cmand1DR-20201110,jo,1,691,8,457,Go,Right,0,NoStart,0,Low
jou-cmand1DR-20201110,jo,1,692,8,458,Go,Right,0,NoStart,0,Low
jou-cmand1DR-20201110,jo,1,693,8,459,Stop,Right,50,NoStart,0,Low
jou-cmand1DR-20201110,jo,1,694,8,460,Go,Left,0,NoStart,0,High
jou-cmand1DR-20201110,jo,1,695,8,461,Stop,Right,50,NoStart,0,Low
jou-cmand1DR-20201110,jo,1,696,8,462,Go,Right,0,NoStart,0,Low
jou-cmand1DR-20201110,jo,1,697,8,463,Go,Left,0,NoStart,0,High
jou-cmand1DR-20201110,jo,1,698,8,464,Stop,Left,50,NoStart,0,High
jou-cmand1DR-20201110,jo,1,699,8,465,Stop,Right,50,NoStart,0,Low
jou-cmand1DR-20201110,jo,1,700,8,466,Go,Left,0,NoStart,0,High
jou-cmand1DR-20201110,jo,1,701,8,467,Go,Right,0,NoStart,0,Low
jou-cmand1DR-20201110,jo,1,702,8,468,Go,Right,0,NoStart,0,Low
jou-cmand1DR-20201110,jo,1,703,8,469,Go,Left,0,NoStart,0,High
jou-cmand1DR-20201110,jo,1,704,8,470,Go,Right,0,NoStart,0,Low
jou-cmand1DR-20201110,jo,1,705,8,471,Go,Right,0,NoStart,0,Low
jou-cmand1DR-20201110,jo,1,706,8,472,Go,Right,0,NoStart,0,Low
jou-cmand1DR-20201110,jo,1,707,8,473,Go,Right,0,NoStart,0,Low
jou-cmand1DR-20201110,jo,1,708,8,474,Stop,Left,50,NoStart,0,High
jou-cmand1DR-20201110,jo,1,709,8,475,Go,Right,0,NoStart,0,Low
jou-cmand1DR-20201110,jo,1,710,8,476,Go,Left,0,NoStart,0,High
jou-cmand1DR-20201110,jo,1,711,8,477,Go,Right,0,NoStart,0,Low
jou-cmand1DR-20201110,jo,1,712,8,478,Go,Right,0,NoStart,0,Low
jou-cmand1DR-20201110,jo,1,713,8,479,Stop,Left,50,NoStart,0,High
jou-cmand1DR-20201110,jo,1,714,8,480,Go,Right,0,NoStart,0,Low
jou-cmand1DR-20201110,jo,1,715,8,481,Stop,Left,50,NoStart,0,High
jou-cmand1DR-20201110,jo,1,716,8,482,Go,Right,0,NoStart,0,Low
jou-cmand1DR-20201110,jo,1,717,8,483,Stop,Right,50,NoStart,0,Low
jou-cmand1DR-20201110,jo,1,718,8,484,Stop,Left,50,NoStart,0,High
jou-cmand1DR-20201110,jo,1,719,8,485,Go,Left,0,NoStart,0,High
jou-cmand1DR-20201110,jo,1,720,8,486,Stop,Left,50,NoStart,0,High
jou-cmand1DR-20201110,jo,1,721,8,487,Go,Right,0,NoStart,0,Low
jou-cmand1DR-20201110,jo,1,722,8,488,Go,Right,0,NoStart,0,Low
jou-cmand1DR-20201110,jo,1,723,8,489,Stop,Left,50,NoStart,0,High
jou-cmand1DR-20201110,jo,1,724,8,490,Stop,Left,50,NoStart,0,High
jou-cmand1DR-20201110,jo,1,725,8,491,Stop,Left,50,NoResponse,0,High
jou-cmand1DR-20201110,jo,1,726,8,492,Stop,Left,133,NoStart,0,High
jou-cmand1DR-20201110,jo,1,727,8,493,Go,Right,0,NoStart,0,Low
jou-cmand1DR-20201110,jo,1,728,8,494,Stop,Left,333,NoStart,0,High
jou-cmand1DR-20201110,jo,1,729,8,495,Go,Left,0,NoStart,0,High
jou-cmand1DR-20201110,jo,1,730,8,496,Go,Left,0,NoStart,0,High
jou-cmand1DR-20201110,jo,1,731,8,497,Go,Right,0,Right,489,Low
jou-cmand1DR-20201110,jo,1,732,8,498,Go,Right,0,Right,513,Low
jou-cmand1DR-20201110,jo,1,733,8,499,Go,Right,0,Right,430,Low
jou-cmand1DR-20201110,jo,1,734,9,1,Stop,Right,483,NoStart,0,High
jou-cmand1DR-20201110,jo,1,735,9,2,Stop,Right,483,NoStart,0,High
jou-cmand1DR-20201110,jo,1,736,9,3,Go,Left,0,Left,221,Low
jou-cmand1DR-20201110,jo,1,737,9,4,Go,Right,0,Right,299,High
jou-cmand1DR-20201110,jo,1,738,9,5,Stop,Right,483,Right,311,High
jou-cmand1DR-20201110,jo,1,739,9,6,Go,Right,0,NoStart,0,High
jou-cmand1DR-20201110,jo,1,740,9,7,Go,Right,0,Right,350,High
jou-cmand1DR-20201110,jo,1,741,9,8,Stop,Left,400,Left,285,Low
jou-cmand1DR-20201110,jo,1,742,9,9,Stop,Left,200,NoResponse,0,Low
jou-cmand1DR-20201110,jo,1,743,9,10,Go,Left,0,Left,277,Low
jou-cmand1DR-20201110,jo,1,744,9,11,Go,Right,0,Right,235,High
jou-cmand1DR-20201110,jo,1,745,9,12,Go,Right,0,Right,267,High
jou-cmand1DR-20201110,jo,1,746,9,13,Go,Right,0,Right,250,High
jou-cmand1DR-20201110,jo,1,747,9,14,Go,Right,0,Right,307,High
jou-cmand1DR-20201110,jo,1,748,9,15,Stop,Right,333,Right,258,High
jou-cmand1DR-20201110,jo,1,749,9,16,Go,Left,0,Left,337,Low
jou-cmand1DR-20201110,jo,1,750,9,17,Stop,Left,50,NoResponse,0,Low
jou-cmand1DR-20201110,jo,1,751,9,18,Go,Left,0,Left,244,Low
jou-cmand1DR-20201110,jo,1,752,9,19,Go,Right,0,Right,266,High
jou-cmand1DR-20201110,jo,1,753,9,20,Go,Left,0,Left,323,Low
jou-cmand1DR-20201110,jo,1,754,9,21,Go,Right,0,Right,298,High
jou-cmand1DR-20201110,jo,1,755,9,22,Stop,Right,133,NoResponse,0,High
jou-cmand1DR-20201110,jo,1,756,9,23,Go,Left,0,Left,259,Low
jou-cmand1DR-20201110,jo,1,757,9,24,Go,Right,0,Right,287,High
jou-cmand1DR-20201110,jo,1,758,9,25,Go,Left,0,Left,343,Low
jou-cmand1DR-20201110,jo,1,759,9,26,Go,Left,0,NoStart,0,Low
jou-cmand1DR-20201110,jo,1,760,9,27,Go,Left,0,Left,457,Low
jou-cmand1DR-20201110,jo,1,761,9,28,Go,Left,0,Left,333,Low
jou-cmand1DR-20201110,jo,1,762,9,29,Go,Left,0,Left,293,Low
jou-cmand1DR-20201110,jo,1,763,9,30,Go,Right,0,Right,240,High
jou-cmand1DR-20201110,jo,1,764,10,1,Go,Right,0,Right,245,Low
jou-cmand1DR-20201110,jo,1,765,10,2,Go,Left,0,Left,224,High
jou-cmand1DR-20201110,jo,1,766,10,3,Go,Left,0,Left,253,High
jou-cmand1DR-20201110,jo,1,767,10,4,Go,Right,0,Right,325,Low
jou-cmand1DR-20201110,jo,1,768,10,5,Stop,Left,50,NoStart,0,High
jou-cmand1DR-20201110,jo,1,769,10,6,Go,Right,0,Right,342,Low
jou-cmand1DR-20201110,jo,1,770,10,7,Stop,Right,50,NoStart,0,Low
jou-cmand1DR-20201110,jo,1,771,10,8,Go,Left,0,Left,264,High
jou-cmand1DR-20201110,jo,1,772,10,9,Go,Left,0,Left,272,High
jou-cmand1DR-20201110,jo,1,773,10,10,Stop,Right,50,NoResponse,0,Low
jou-cmand1DR-20201110,jo,1,774,10,11,Go,Right,0,Right,388,Low
jou-cmand1DR-20201110,jo,1,775,10,12,Go,Right,0,Right,283,Low
jou-cmand1DR-20201110,jo,1,776,10,13,Go,Right,0,Right,280,Low
jou-cmand1DR-20201110,jo,1,777,10,14,Go,Right,0,Right,495,Low
jou-cmand1DR-20201110,jo,1,778,10,15,Stop,Right,133,NoResponse,0,Low
jou-cmand1DR-20201110,jo,1,779,10,16,Stop,Left,333,Left,246,High
jou-cmand1DR-20201110,jo,1,780,10,17,Go,Right,0,NoStart,0,Low
jou-cmand1DR-20201110,jo,1,781,10,18,Go,Right,0,NoStart,0,Low
jou-cmand1DR-20201110,jo,1,782,10,19,Go,Left,0,Left,245,High
jou-cmand1DR-20201110,jo,1,783,10,20,Stop,Right,200,NoResponse,0,Low
jou-cmand1DR-20201110,jo,1,784,10,21,Go,Right,0,Right,324,Low
jou-cmand1DR-20201110,jo,1,785,10,22,Go,Right,0,Right,325,Low
jou-cmand1DR-20201110,jo,1,786,10,23,Stop,Right,267,NoStart,0,Low
jou-cmand1DR-20201110,jo,1,787,10,24,Go,Left,0,Left,239,High
jou-cmand1DR-20201110,jo,1,788,10,25,Go,Left,0,Left,257,High
jou-cmand1DR-20201110,jo,1,789,10,26,Go,Right,0,Right,275,Low
jou-cmand1DR-20201110,jo,1,790,10,27,Stop,Left,333,Left,318,High
jou-cmand1DR-20201110,jo,1,791,10,28,Go,Right,0,Right,253,Low
jou-cmand1DR-20201110,jo,1,792,10,29,Go,Left,0,NoStart,0,High
jou-cmand1DR-20201110,jo,1,793,10,30,Go,Right,0,Right,280,Low
jou-cmand1DR-20201110,jo,1,794,11,1,Stop,Right,200,NoResponse,0,High
jou-cmand1DR-20201110,jo,1,795,11,2,Go,Left,0,Left,508,Low
jou-cmand1DR-20201110,jo,1,796,11,3,Go,Left,0,Left,421,Low
jou-cmand1DR-20201110,jo,1,797,11,4,Go,Right,0,Right,280,High
jou-cmand1DR-20201110,jo,1,798,11,5,Go,Right,0,Right,238,High
jou-cmand1DR-20201110,jo,1,799,11,6,Stop,Left,333,Left,347,Low
jou-cmand1DR-20201110,jo,1,800,11,7,Go,Left,0,NoStart,0,Low
jou-cmand1DR-20201110,jo,1,801,11,8,Go,Left,0,Left,347,Low
jou-cmand1DR-20201110,jo,1,802,11,9,Go,Left,0,Left,391,Low
jou-cmand1DR-20201110,jo,1,803,11,10,Go,Left,0,Left,410,Low
jou-cmand1DR-20201110,jo,1,804,11,11,Go,Left,0,Left,301,Low
jou-cmand1DR-20201110,jo,1,805,12,1,Go,Right,0,Right,237,Low
jou-cmand1DR-20201110,jo,1,806,12,2,Go,Left,0,Left,302,High
jou-cmand1DR-20201110,jo,1,807,12,3,Go,Left,0,Left,224,High
jou-cmand1DR-20201110,jo,1,808,12,4,Go,Left,0,Left,282,High
jou-cmand1DR-20201110,jo,1,809,12,5,Go,Right,0,Right,419,Low
jou-cmand1DR-20201110,jo,1,810,12,6,Stop,Right,267,NoResponse,0,Low
jou-cmand1DR-20201110,jo,1,811,12,7,Stop,Left,333,NoStart,0,High
jou-cmand1DR-20201110,jo,1,812,12,8,Go,Right,0,NoStart,0,Low
jou-cmand1DR-20201110,jo,1,813,12,9,Go,Left,0,Left,192,High
jou-cmand1DR-20201110,jo,1,814,12,10,Stop,Left,483,NoStart,0,High
jou-cmand1DR-20201110,jo,1,815,12,11,Go,Right,0,NoStart,0,Low
jou-cmand1DR-20201110,jo,1,816,12,12,Go,Right,0,Right,386,Low
jou-cmand1DR-20201110,jo,1,817,13,1,Stop,Right,483,Right,291,High
jou-cmand1DR-20201110,jo,1,818,13,2,Go,Right,0,Right,393,High
jou-cmand1DR-20201110,jo,1,819,13,3,Go,Left,0,Left,268,Low
jou-cmand1DR-20201110,jo,1,820,13,4,Go,Left,0,Left,223,Low
jou-cmand1DR-20201110,jo,1,821,13,5,Go,Left,0,Left,250,Low
jou-cmand1DR-20201110,jo,1,822,13,6,Go,Left,0,Left,395,Low
jou-cmand1DR-20201110,jo,1,823,13,7,Go,Right,0,Right,305,High
jou-cmand1DR-20201110,jo,1,824,13,8,Stop,Left,400,Left,399,Low
jou-cmand1DR-20201110,jo,1,825,13,9,Go,Left,0,Left,304,Low
jou-cmand1DR-20201110,jo,1,826,13,10,Go,Right,0,NoStart,0,High
jou-cmand1DR-20201110,jo,1,827,13,11,Go,Left,0,Left,245,Low
jou-cmand1DR-20201110,jo,1,828,13,12,Go,Left,0,Left,301,Low
jou-cmand1DR-20201110,jo,1,829,13,13,Go,Right,0,Right,254,High
jou-cmand1DR-20201110,jo,1,830,14,1,Go,Right,0,Right,239,Low
jou-cmand1DR-20201110,jo,1,831,14,2,Go,Left,0,Left,251,High
jou-cmand1DR-20201110,jo,1,832,14,3,Go,Left,0,Left,300,High
jou-cmand1DR-20201110,jo,1,833,14,4,Go,Right,0,Right,313,Low
jou-cmand1DR-20201110,jo,1,834,14,5,Go,Left,0,Left,259,High
jou-cmand1DR-20201110,jo,1,835,14,6,Stop,Right,267,NoStart,0,Low
jou-cmand1DR-20201110,jo,1,836,14,7,Go,Right,0,Right,264,Low
jou-cmand1DR-20201110,jo,1,837,14,8,Go,Left,0,Left,229,High
jou-cmand1DR-20201110,jo,1,838,14,9,Stop,Right,267,Right,315,Low
jou-cmand1DR-20201110,jo,1,839,14,10,Stop,Left,200,NoStart,0,High
jou-cmand1DR-20201110,jo,1,840,14,11,Stop,Left,133,NoResponse,0,High
jou-cmand1DR-20201110,jo,1,841,14,12,Go,Right,0,Right,411,Low
jou-cmand1DR-20201110,jo,1,842,14,13,Stop,Right,333,Right,350,Low
jou-cmand1DR-20201110,jo,1,843,14,14,Stop,Left,200,Left,211,High
jou-cmand1DR-20201110,jo,1,844,14,15,Stop,Left,50,NoResponse,0,High
jou-cmand1DR-20201110,jo,1,845,14,16,Stop,Right,133,NoStart,0,Low
jou-cmand1DR-20201110,jo,1,846,14,17,Go,Left,0,Left,241,High
jou-cmand1DR-20201110,jo,1,847,14,18,Stop,Left,133,NoStart,0,High
jou-cmand1DR-20201110,jo,1,848,14,19,Go,Left,0,Left,563,High
jou-cmand1DR-20201110,jo,1,849,14,20,Go,Right,0,Right,327,Low
jou-cmand1DR-20201110,jo,1,850,14,21,Stop,Left,133,NoStart,0,High
jou-cmand1DR-20201110,jo,1,851,14,22,Go,Left,0,Left,402,High
jou-cmand1DR-20201110,jo,1,852,14,23,Go,Left,0,Left,220,High
jou-cmand1DR-20201110,jo,1,853,14,24,Stop,Right,133,NoResponse,0,Low
jou-cmand1DR-20201110,jo,1,854,14,25,Go,Left,0,Left,223,High
jou-cmand1DR-20201110,jo,1,855,14,26,Stop,Left,200,Left,241,High
jou-cmand1DR-20201110,jo,1,856,14,27,Go,Right,0,Right,337,Low
jou-cmand1DR-20201110,jo,1,857,14,28,Stop,Left,50,NoResponse,0,High
jou-cmand1DR-20201110,jo,1,858,14,29,Go,Left,0,Left,254,High
jou-cmand1DR-20201110,jo,1,859,14,30,Go,Right,0,Right,409,Low
jou-cmand1DR-20201110,jo,1,860,14,31,Go,Right,0,Right,511,Low
jou-cmand1DR-20201110,jo,1,861,14,32,Go,Left,0,NoStart,0,High
jou-cmand1DR-20201110,jo,1,862,14,33,Go,Left,0,Left,170,High
jou-cmand1DR-20201110,jo,1,863,14,34,Go,Left,0,Left,228,High
jou-cmand1DR-20201110,jo,1,864,14,35,Go,Left,0,Left,275,High
jou-cmand1DR-20201110,jo,1,865,14,36,Stop,Left,200,NoResponse,0,High
jou-cmand1DR-20201110,jo,1,866,14,37,Go,Left,0,Left,265,High
jou-cmand1DR-20201110,jo,1,867,14,38,Stop,Left,333,Left,249,High
jou-cmand1DR-20201110,jo,1,868,14,39,Stop,Right,200,Right,269,Low
jou-cmand1DR-20201110,jo,1,869,14,40,Go,Right,0,NoStart,0,Low
jou-cmand1DR-20201110,jo,1,870,14,41,Stop,Right,133,NoStart,0,Low
jou-cmand1DR-20201110,jo,1,871,14,42,Go,Right,0,NoStart,0,Low
jou-cmand1DR-20201110,jo,1,872,14,43,Go,Left,0,NoStart,0,High
jou-cmand1DR-20201110,jo,1,873,14,44,Go,Right,0,NoStart,0,Low
jou-cmand1DR-20201110,jo,1,874,14,45,Stop,Left,50,NoStart,0,High
jou-cmand1DR-20201110,jo,1,875,14,46,Go,Right,0,NoStart,0,Low
jou-cmand1DR-20201110,jo,1,876,14,47,Stop,Right,50,NoStart,0,Low
jou-cmand1DR-20201110,jo,1,877,14,48,Go,Right,0,NoStart,0,Low
jou-cmand1DR-20201110,jo,1,878,14,49,Go,Right,0,NoStart,0,Low
jou-cmand1DR-20201110,jo,1,879,14,50,Go,Left,0,NoStart,0,High
jou-cmand1DR-20201110,jo,1,880,14,51,Go,Right,0,NoStart,0,Low
jou-cmand1DR-20201110,jo,1,881,14,52,Go,Right,0,NoStart,0,Low
jou-cmand1DR-20201110,jo,1,882,14,53,Go,Right,0,NoStart,0,Low
jou-cmand1DR-20201110,jo,1,883,14,54,Stop,Left,50,NoStart,0,High
jou-cmand1DR-20201110,jo,1,884,14,55,Go,Right,0,NoStart,0,Low
jou-cmand1DR-20201110,jo,1,885,14,56,Go,Left,0,NoStart,0,High
jou-cmand1DR-20201110,jo,1,886,14,57,Go,Right,0,Right,293,Low
jou-cmand1DR-20201110,jo,1,887,14,58,Go,Right,0,Right,354,Low
jou-cmand1DR-20201110,jo,1,888,14,59,Go,Right,0,Right,328,Low
jou-cmand1DR-20201110,jo,1,889,14,60,Go,Left,0,Left,215,High
jou-cmand1DR-20201110,jo,1,890,14,61,Stop,Right,50,NoResponse,0,Low
jou-cmand1DR-20201110,jo,1,891,15,1,Go,Right,0,Right,479,High
jou-cmand1DR-20201110,jo,1,892,15,2,Stop,Right,133,NoResponse,0,High
jou-cmand1DR-20201110,jo,1,893,15,3,Go,Right,0,Right,335,High
jou-cmand1DR-20201110,jo,1,894,15,4,Go,Left,0,Left,301,Low
jou-cmand1DR-20201110,jo,1,895,15,5,Go,Right,0,Right,234,High
jou-cmand1DR-20201110,jo,1,896,15,6,Stop,Left,333,Left,233,Low
jou-cmand1DR-20201110,jo,1,897,15,7,Stop,Right,133,NoResponse,0,High
jou-cmand1DR-20201110,jo,1,898,15,8,Go,Right,0,Right,301,High
jou-cmand1DR-20201110,jo,1,899,15,9,Stop,Left,267,Left,802,Low
jou-cmand1DR-20201110,jo,1,900,15,10,Go,Right,0,Right,224,High
jou-cmand1DR-20201110,jo,1,901,15,11,Stop,Left,267,Left,255,Low
jou-cmand1DR-20201110,jo,1,902,15,12,Go,Right,0,Right,240,High
jou-cmand1DR-20201110,jo,1,903,15,13,Go,Right,0,Right,250,High
jou-cmand1DR-20201110,jo,1,904,15,14,Go,Right,0,Right,275,High
jou-cmand1DR-20201110,jo,1,905,16,1,Stop,Right,50,NoStart,0,Low
jou-cmand1DR-20201110,jo,1,906,16,2,Stop,Right,50,NoStart,0,Low
jou-cmand1DR-20201110,jo,1,907,16,3,Go,Left,0,NoStart,0,High
jou-cmand1DR-20201110,jo,1,908,16,4,Go,Left,0,Left,460,High
jou-cmand1DR-20201110,jo,1,909,16,5,Go,Left,0,Left,355,High
jou-cmand1DR-20201110,jo,1,910,16,6,Stop,Left,50,NoResponse,0,High
jou-cmand1DR-20201110,jo,1,911,16,7,Go,Right,0,NoStart,0,Low
jou-cmand1DR-20201110,jo,1,912,16,8,Stop,Right,200,NoStart,0,Low
jou-cmand1DR-20201110,jo,1,913,16,9,Stop,Right,267,NoStart,0,Low
jou-cmand1DR-20201110,jo,1,914,16,10,Go,Right,0,NoStart,0,Low
jou-cmand1DR-20201110,jo,1,915,16,11,Go,Left,0,NoStart,0,High
jou-cmand1DR-20201110,jo,1,916,16,12,Go,Right,0,Right,213,Low
jou-cmand1DR-20201110,jo,1,917,16,13,Stop,Right,483,Right,255,Low
jou-cmand1DR-20201110,jo,1,918,16,14,Go,Right,0,NoStart,0,Low
jou-cmand1DR-20201110,jo,1,919,16,15,Stop,Right,267,Right,229,Low
jou-cmand1DR-20201110,jo,1,920,16,16,Go,Left,0,Left,236,High
jou-cmand1DR-20201110,jo,1,921,16,17,Go,Right,0,Right,343,Low
jou-cmand1DR-20201110,jo,1,922,16,18,Go,Right,0,Right,305,Low
jou-cmand1DR-20201110,jo,1,923,16,19,Go,Right,0,Right,346,Low
jou-cmand1DR-20201110,jo,1,924,16,20,Stop,Left,133,NoStart,0,High
jou-cmand1DR-20201110,jo,1,925,16,21,Go,Left,0,Left,172,High
jou-cmand1DR-20201110,jo,1,926,16,22,Go,Left,0,Left,235,High
jou-cmand1DR-20201110,jo,1,927,16,23,Go,Left,0,Left,242,High
jou-cmand1DR-20201110,jo,1,928,16,24,Go,Right,0,Right,336,Low
jou-cmand1DR-20201110,jo,1,929,16,25,Stop,Right,50,Right,372,Low
jou-cmand1DR-20201110,jo,1,930,16,26,Go,Right,0,Right,456,Low
jou-cmand1DR-20201110,jo,1,931,16,27,Go,Right,0,Right,317,Low
jou-cmand1DR-20201110,jo,1,932,16,28,Go,Left,0,NoStart,0,High
jou-cmand1DR-20201110,jo,1,933,16,29,Go,Left,0,NoStart,0,High
jou-cmand1DR-20201110,jo,1,934,16,30,Go,Right,0,Right,277,Low
jou-cmand1DR-20201110,jo,1,935,16,31,Go,Right,0,NoStart,0,Low
jou-cmand1DR-20201110,jo,1,936,16,32,Go,Left,0,NoStart,0,High
jou-cmand1DR-20201110,jo,1,937,16,33,Go,Right,0,Right,310,Low
jou-cmand1DR-20201110,jo,1,938,16,34,Stop,Left,50,NoResponse,0,High
jou-cmand1DR-20201110,jo,1,939,16,35,Stop,Left,267,Left,268,High
jou-cmand1DR-20201110,jo,1,940,16,36,Go,Right,0,NoStart,0,Low
jou-cmand1DR-20201110,jo,1,941,16,37,Go,Right,0,NoStart,0,Low
jou-cmand1DR-20201110,jo,1,942,16,38,Stop,Left,50,NoStart,0,High
jou-cmand1DR-20201110,jo,1,943,16,39,Stop,Right,50,NoStart,0,Low
jou-cmand1DR-20201110,jo,1,944,16,40,Stop,Left,50,NoStart,0,High
jou-cmand1DR-20201110,jo,1,945,16,41,Go,Left,0,Left,259,High
jou-cmand1DR-20201110,jo,1,946,16,42,Go,Left,0,Left,291,High
jou-cmand1DR-20201110,jo,1,947,16,43,Stop,Right,50,NoStart,0,Low
jou-cmand1DR-20201110,jo,1,948,16,44,Stop,Left,50,NoResponse,0,High
jou-cmand1DR-20201110,jo,1,949,16,45,Stop,Right,133,NoResponse,0,Low
jou-cmand1DR-20201110,jo,1,950,16,46,Stop,Right,267,Right,257,Low
jou-cmand1DR-20201110,jo,1,951,16,47,Go,Right,0,Right,279,Low
jou-cmand1DR-20201110,jo,1,952,16,48,Go,Right,0,Right,433,Low
jou-cmand1DR-20201110,jo,1,953,16,49,Go,Left,0,Left,258,High
jou-cmand1DR-20201110,jo,1,954,16,50,Go,Right,0,Right,286,Low
jou-cmand1DR-20201110,jo,1,955,16,51,Go,Right,0,Right,331,Low
jou-cmand1DR-20201110,jo,1,956,16,52,Stop,Left,50,NoResponse,0,High
jou-cmand1DR-20201110,jo,1,957,16,53,Go,Right,0,Right,264,Low
jou-cmand1DR-20201110,jo,1,958,16,54,Go,Right,0,Right,538,Low
jou-cmand1DR-20201110,jo,1,959,16,55,Go,Right,0,Right,350,Low
jou-cmand1DR-20201110,jo,1,960,17,1,Go,Right,0,Right,337,High
jou-cmand1DR-20201110,jo,1,961,17,2,Stop,Right,133,NoResponse,0,High
jou-cmand1DR-20201110,jo,1,962,17,3,Go,Right,0,Right,460,High
jou-cmand1DR-20201110,jo,1,963,17,4,Go,Left,0,Left,355,Low
jou-cmand1DR-20201110,jo,1,964,17,5,Stop,Left,200,NoResponse,0,Low
jou-cmand1DR-20201110,jo,1,965,17,6,Stop,Right,333,NoStart,0,High
jou-cmand1DR-20201110,jo,1,966,17,7,Go,Right,0,Right,230,High
jou-cmand1DR-20201110,jo,1,967,17,8,Stop,Right,483,Right,226,High
jou-cmand1DR-20201110,jo,1,968,17,9,Go,Left,0,Left,297,Low
jou-cmand1DR-20201110,jo,1,969,17,10,Stop,Right,400,Right,274,High
jou-cmand1DR-20201110,jo,1,970,17,11,Go,Right,0,Right,269,High
jou-cmand1DR-20201110,jo,1,971,17,12,Go,Right,0,Right,283,High
jou-cmand1DR-20201110,jo,1,972,17,13,Go,Right,0,Right,302,High
jou-cmand1DR-20201110,jo,1,973,17,14,Go,Right,0,NoStart,0,High
jou-cmand1DR-20201110,jo,1,974,17,15,Stop,Right,267,Right,250,High
jou-cmand1DR-20201110,jo,1,975,17,16,Stop,Right,133,NoResponse,0,High
jou-cmand1DR-20201110,jo,1,976,17,17,Stop,Right,267,NoStart,0,High
jou-cmand1DR-20201110,jo,1,977,17,18,Go,Left,0,Left,330,Low
jou-cmand1DR-20201110,jo,1,978,17,19,Stop,Right,267,Right,287,High
jou-cmand1DR-20201110,jo,1,979,17,20,Stop,Left,200,NoResponse,0,Low
jou-cmand1DR-20201110,jo,1,980,17,21,Go,Right,0,Right,236,High
jou-cmand1DR-20201110,jo,1,981,18,1,Go,Right,0,NoStart,0,Low
jou-cmand1DR-20201110,jo,1,982,18,2,Stop,Left,333,Left,291,High
jou-cmand1DR-20201110,jo,1,983,18,3,Stop,Left,267,Left,277,High
jou-cmand1DR-20201110,jo,1,984,18,4,Stop,Left,133,Left,291,High
jou-cmand1DR-20201110,jo,1,985,18,5,Go,Right,0,Right,239,Low
jou-cmand1DR-20201110,jo,1,986,18,6,Go,Right,0,Right,290,Low
jou-cmand1DR-20201110,jo,1,987,18,7,Stop,Right,50,NoResponse,0,Low
jou-cmand1DR-20201110,jo,1,988,18,8,Stop,Right,267,Right,256,Low
jou-cmand1DR-20201110,jo,1,989,18,9,Go,Left,0,Left,251,High
jou-cmand1DR-20201110,jo,1,990,18,10,Go,Right,0,Right,375,Low
jou-cmand1DR-20201110,jo,1,991,18,11,Stop,Right,200,NoResponse,0,Low
jou-cmand1DR-20201110,jo,1,992,18,12,Go,Right,0,Right,312,Low
jou-cmand1DR-20201110,jo,1,993,18,13,Stop,Left,333,Left,220,High
jou-cmand1DR-20201110,jo,1,994,18,14,Stop,Right,133,NoResponse,0,Low
jou-cmand1DR-20201110,jo,1,995,18,15,Go,Left,0,Left,216,High
jou-cmand1DR-20201110,jo,1,996,18,16,Stop,Right,333,NoResponse,0,Low
jou-cmand1DR-20201110,jo,1,997,18,17,Go,Left,0,Left,239,High
jou-cmand1DR-20201110,jo,1,998,18,18,Go,Left,0,Left,253,High
jou-cmand1DR-20201110,jo,1,999,18,19,Go,Right,0,Right,289,Low
jou-cmand1DR-20201110,jo,1,1000,18,20,Stop,Left,483,Left,262,High
jou-cmand1DR-20201110,jo,1,1001,18,21,Stop,Left,267,Left,314,High
jou-cmand1DR-20201110,jo,1,1002,18,22,Stop,Left,133,NoResponse,0,High
jou-cmand1DR-20201110,jo,1,1003,18,23,Go,Right,0,Right,340,Low
jou-cmand1DR-20201110,jo,1,1004,18,24,Go,Left,0,Left,256,High
jou-cmand1DR-20201110,jo,1,1005,18,25,Go,Left,0,Left,367,High
jou-cmand1DR-20201110,jo,1,1006,18,26,Stop,Left,200,NoResponse,0,High
jou-cmand1DR-20201110,jo,1,1007,18,27,Go,Left,0,Left,356,High
jou-cmand1DR-20201110,jo,1,1008,19,1,Stop,Right,333,Right,303,High
jou-cmand1DR-20201110,jo,1,1009,19,2,Go,Left,0,Left,254,Low
jou-cmand1DR-20201110,jo,1,1010,19,3,Go,Left,0,Left,293,Low
jou-cmand1DR-20201110,jo,1,1011,19,4,Go,Left,0,Left,407,Low
jou-cmand1DR-20201110,jo,1,1012,19,5,Go,Right,0,Right,297,High
jou-cmand1DR-20201110,jo,1,1013,19,6,Go,Left,0,Left,286,Low
jou-cmand1DR-20201110,jo,1,1014,19,7,Stop,Left,267,NoResponse,0,Low
jou-cmand1DR-20201110,jo,1,1015,19,8,Go,Left,0,Left,333,Low
jou-cmand1DR-20201110,jo,1,1016,19,9,Go,Right,0,Right,278,High
jou-cmand1DR-20201110,jo,1,1017,19,10,Go,Right,0,Right,268,High
jou-cmand1DR-20201110,jo,1,1018,19,11,Go,Left,0,Left,302,Low
jou-cmand1DR-20201110,jo,1,1019,19,12,Go,Left,0,NoStart,0,Low
jou-cmand1DR-20201110,jo,1,1020,19,13,Go,Right,0,Right,260,High
jou-cmand1DR-20201110,jo,1,1021,19,14,Stop,Left,333,Left,317,Low
jou-cmand1DR-20201110,jo,1,1022,19,15,Go,Right,0,Right,291,High
jou-cmand1DR-20201110,jo,1,1023,19,16,Go,Right,0,Right,336,High
jou-cmand1DR-20201110,jo,1,1024,19,17,Stop,Right,133,NoResponse,0,High
jou-cmand1DR-20201110,jo,1,1025,19,18,Go,Right,0,Right,501,High
jou-cmand1DR-20201110,jo,1,1026,19,19,Go,Left,0,Left,454,Low
jou-cmand1DR-20201110,jo,1,1027,19,20,Stop,Right,200,Right,227,High
jou-cmand1DR-20201110,jo,1,1028,19,21,Stop,Right,133,NoStart,0,High
jou-cmand1DR-20201110,jo,1,1029,19,22,Stop,Right,133,NoResponse,0,High
jou-cmand1DR-20201110,jo,1,1030,19,23,Go,Left,0,Left,496,Low
jou-cmand1DR-20201110,jo,1,1031,19,24,Stop,Left,267,Left,242,Low
jou-cmand1DR-20201110,jo,1,1032,19,25,Stop,Left,200,Left,274,Low
jou-cmand1DR-20201110,jo,1,1033,19,26,Go,Left,0,Left,315,Low
jou-cmand1DR-20201110,jo,1,1034,19,27,Go,Left,0,Left,323,Low
jou-cmand1DR-20201110,jo,1,1035,19,28,Stop,Right,50,NoStart,0,High
jou-cmand1DR-20201110,jo,1,1036,19,29,Go,Left,0,Left,308,Low
jou-cmand1DR-20201110,jo,1,1037,19,30,Stop,Right,50,NoResponse,0,High
jou-cmand1DR-20201110,jo,1,1038,19,31,Go,Left,0,Left,396,Low
jou-cmand1DR-20201110,jo,1,1039,19,32,Go,Left,0,Left,327,Low
jou-cmand1DR-20201110,jo,1,1040,19,33,Stop,Right,267,Right,237,High
jou-cmand1DR-20201110,jo,1,1041,19,34,Go,Right,0,Right,289,High
jou-cmand1DR-20201110,jo,1,1042,20,1,Stop,Right,133,NoResponse,0,Low
jou-cmand1DR-20201110,jo,1,1043,20,2,Stop,Left,200,NoStart,0,High
jou-cmand1DR-20201110,jo,1,1044,20,3,Go,Left,0,Left,209,High
jou-cmand1DR-20201110,jo,1,1045,20,4,Stop,Right,400,Right,416,Low
jou-cmand1DR-20201110,jo,1,1046,20,5,Stop,Right,333,NoResponse,0,Low
jou-cmand1DR-20201110,jo,1,1047,20,6,Go,Left,0,Left,209,High
jou-cmand1DR-20201110,jo,1,1048,20,7,Stop,Left,483,Left,238,High
jou-cmand1DR-20201110,jo,1,1049,20,8,Stop,Right,400,NoStart,0,Low
jou-cmand1DR-20201110,jo,1,1050,20,9,Stop,Left,333,Left,216,High
jou-cmand1DR-20201110,jo,1,1051,20,10,Go,Right,0,NoStart,0,Low
jou-cmand1DR-20201110,jo,1,1052,20,11,Go,Left,0,NoStart,0,High
jou-cmand1DR-20201110,jo,1,1053,20,12,Go,Left,0,NoStart,0,High
jou-cmand1DR-20201110,jo,1,1054,20,13,Stop,Right,200,NoStart,0,Low
jou-cmand1DR-20201110,jo,1,1055,20,14,Go,Right,0,NoStart,0,Low
jou-cmand1DR-20201110,jo,1,1056,20,15,Go,Right,0,Right,271,Low
jou-cmand1DR-20201110,jo,1,1057,20,16,Go,Right,0,Right,275,Low
jou-cmand1DR-20201110,jo,1,1058,20,17,Go,Left,0,Left,258,High
jou-cmand1DR-20201110,jo,1,1059,20,18,Go,Left,0,Left,214,High
jou-cmand1DR-20201110,jo,1,1060,20,19,Stop,Right,133,NoResponse,0,Low
jou-cmand1DR-20201110,jo,1,1061,20,20,Go,Left,0,Left,249,High
jou-cmand1DR-20201110,jo,1,1062,20,21,Go,Right,0,NoStart,0,Low
jou-cmand1DR-20201110,jo,1,1063,20,22,Go,Left,0,Left,226,High
jou-cmand1DR-20201110,jo,1,1064,20,23,Go,Left,0,Left,302,High
jou-cmand1DR-20201110,jo,1,1065,20,24,Stop,Right,200,NoResponse,0,Low
jou-cmand1DR-20201110,jo,1,1066,20,25,Stop,Right,400,Right,317,Low
jou-cmand1DR-20201110,jo,1,1067,20,26,Stop,Right,267,Right,336,Low
jou-cmand1DR-20201110,jo,1,1068,20,27,Stop,Right,200,NoResponse,0,Low
jou-cmand1DR-20201110,jo,1,1069,20,28,Go,Left,0,Left,218,High
jou-cmand1DR-20201110,jo,1,1070,20,29,Go,Left,0,Left,254,High
jou-cmand1DR-20201110,jo,1,1071,20,30,Go,Left,0,NoStart,0,High
jou-cmand1DR-20201110,jo,1,1072,20,31,Go,Right,0,NoStart,0,Low
jou-cmand1DR-20201110,jo,1,1073,20,32,Go,Right,0,NoStart,0,Low
jou-cmand1DR-20201110,jo,1,1074,20,33,Stop,Right,50,NoStart,0,Low
jou-cmand1DR-20201110,jo,1,1075,20,34,Go,Right,0,NoStart,0,Low
jou-cmand1DR-20201110,jo,1,1076,20,35,Go,Right,0,NoStart,0,Low
jou-cmand1DR-20201110,jo,1,1077,20,36,Go,Left,0,NoStart,0,High
jou-cmand1DR-20201110,jo,1,1078,20,37,Go,Left,0,NoStart,0,High
jou-cmand1DR-20201110,jo,1,1079,20,38,Stop,Left,267,Left,260,High
jou-cmand1DR-20201110,jo,1,1080,20,39,Stop,Right,50,NoResponse,0,Low
jou-cmand1DR-20201110,jo,1,1081,20,40,Go,Left,0,Left,246,High
jou-cmand1DR-20201110,jo,1,1082,20,41,Go,Right,0,Right,269,Low
jou-cmand1DR-20201110,jo,1,1083,20,42,Go,Right,0,Right,254,Low
jou-cmand1DR-20201110,jo,1,1084,20,43,Go,Right,0,Right,289,Low
jou-cmand1DR-20201110,jo,1,1085,20,44,Go,Left,0,Left,242,High
jou-cmand1DR-20201110,jo,1,1086,21,1,Go,Right,0,Right,278,High
jou-cmand1DR-20201110,jo,1,1087,21,2,Go,Right,0,Right,243,High
jou-cmand1DR-20201110,jo,1,1088,21,3,Go,Left,0,Left,301,Low
jou-cmand1DR-20201110,jo,1,1089,21,4,Stop,Left,400,NoStart,0,Low
jou-cmand1DR-20201110,jo,1,1090,21,5,Go,Right,0,Right,266,High
jou-cmand1DR-20201110,jo,1,1091,21,6,Go,Left,0,Left,327,Low
jou-cmand1DR-20201110,jo,1,1092,21,7,Stop,Right,267,Right,270,High
jou-cmand1DR-20201110,jo,1,1093,21,8,Go,Right,0,Right,302,High
jou-cmand1DR-20201110,jo,1,1094,21,9,Go,Right,0,Right,247,High
jou-cmand1DR-20201110,jo,1,1095,21,10,Go,Left,0,Left,256,Low
jou-cmand1DR-20201110,jo,1,1096,21,11,Go,Right,0,Right,270,High
jou-cmand1DR-20201110,jo,1,1097,21,12,Stop,Right,133,NoResponse,0,High
jou-cmand1DR-20201110,jo,1,1098,21,13,Stop,Left,200,NoStart,0,Low
jou-cmand1DR-20201110,jo,1,1099,21,14,Stop,Left,200,NoStart,0,Low
jou-cmand1DR-20201110,jo,1,1100,21,15,Stop,Left,200,Left,227,Low
jou-cmand1DR-20201110,jo,1,1101,21,16,Stop,Right,133,NoResponse,0,High
jou-cmand1DR-20201110,jo,1,1102,21,17,Stop,Left,200,NoResponse,0,Low
jou-cmand1DR-20201110,jo,1,1103,21,18,Stop,Right,333,Right,304,High
jou-cmand1DR-20201110,jo,1,1104,21,19,Stop,Right,200,NoResponse,0,High
jou-cmand1DR-20201110,jo,1,1105,21,20,Stop,Right,400,Right,450,High
jou-cmand1DR-20201110,jo,1,1106,21,21,Go,Left,0,Left,276,Low
jou-cmand1DR-20201110,jo,1,1107,21,22,Stop,Right,200,NoResponse,0,High
jou-cmand1DR-20201110,jo,1,1108,21,23,Go,Right,0,Right,272,High
jou-cmand1DR-20201110,jo,1,1109,21,24,Go,Left,0,Left,257,Low
jou-cmand1DR-20201110,jo,1,1110,21,25,Go,Right,0,Right,323,High
jou-cmand1DR-20201110,jo,1,1111,21,26,Go,Right,0,Right,311,High
jou-cmand1DR-20201110,jo,1,1112,21,27,Stop,Right,400,Right,259,High
jou-cmand1DR-20201110,jo,1,1113,21,28,Go,Left,0,Left,406,Low
jou-cmand1DR-20201110,jo,1,1114,21,29,Go,Left,0,Left,434,Low
jou-cmand1DR-20201110,jo,1,1115,21,30,Go,Left,0,Left,429,Low
jou-cmand1DR-20201110,jo,1,1116,21,31,Go,Left,0,Left,296,Low
jou-cmand1DR-20201110,jo,1,1117,21,32,Stop,Left,333,Left,307,Low
jou-cmand1DR-20201110,jo,1,1118,21,33,Go,Left,0,Left,328,Low
jou-cmand1DR-20201110,jo,1,1119,22,1,Stop,Left,133,NoResponse,0,High
jou-cmand1DR-20201110,jo,1,1120,22,2,Go,Left,0,Left,403,High
jou-cmand1DR-20201110,jo,1,1121,22,3,Go,Left,0,Left,260,High
jou-cmand1DR-20201110,jo,1,1122,22,4,Go,Right,0,Right,261,Low
jou-cmand1DR-20201110,jo,1,1123,22,5,Stop,Left,333,Left,231,High
jou-cmand1DR-20201110,jo,1,1124,22,6,Go,Left,0,Left,249,High
jou-cmand1DR-20201110,jo,1,1125,22,7,Stop,Left,267,Left,230,High
jou-cmand1DR-20201110,jo,1,1126,22,8,Go,Right,0,Right,355,Low
jou-cmand1DR-20201110,jo,1,1127,22,9,Stop,Left,200,Left,274,High
jou-cmand1DR-20201110,jo,1,1128,22,10,Stop,Left,133,NoResponse,0,High
jou-cmand1DR-20201110,jo,1,1129,22,11,Go,Right,0,Right,300,Low
jou-cmand1DR-20201110,jo,1,1130,22,12,Go,Left,0,Left,209,High
jou-cmand1DR-20201110,jo,1,1131,22,13,Go,Left,0,Left,331,High
jou-cmand1DR-20201110,jo,1,1132,22,14,Go,Left,0,Left,279,High
jou-cmand1DR-20201110,jo,1,1133,22,15,Stop,Left,267,Left,262,High
jou-cmand1DR-20201110,jo,1,1134,22,16,Go,Right,0,Right,310,Low
jou-cmand1DR-20201110,jo,1,1135,22,17,Go,Right,0,Right,350,Low
jou-cmand1DR-20201110,jo,1,1136,22,18,Stop,Left,133,Left,210,High
jou-cmand1DR-20201110,jo,1,1137,22,19,Stop,Right,50,NoStart,0,Low
jou-cmand1DR-20201110,jo,1,1138,22,20,Stop,Right,50,NoStart,0,Low
jou-cmand1DR-20201110,jo,1,1139,22,21,Go,Right,0,NoStart,0,Low
jou-cmand1DR-20201110,jo,1,1140,22,22,Go,Right,0,Right,283,Low
jou-cmand1DR-20201110,jo,1,1141,22,23,Stop,Right,50,NoResponse,0,Low
jou-cmand1DR-20201110,jo,1,1142,22,24,Go,Left,0,Left,236,High
jou-cmand1DR-20201110,jo,1,1143,22,25,Go,Right,0,Right,354,Low
jou-cmand1DR-20201110,jo,1,1144,22,26,Stop,Left,133,NoStart,0,High
jou-cmand1DR-20201110,jo,1,1145,22,27,Go,Right,0,Right,485,Low
jou-cmand1DR-20201110,jo,1,1146,22,28,Stop,Left,133,Left,176,High
jou-cmand1DR-20201110,jo,1,1147,22,29,Stop,Left,50,NoResponse,0,High
jou-cmand1DR-20201110,jo,1,1148,22,30,Go,Left,0,Left,206,High
jou-cmand1DR-20201110,jo,1,1149,22,31,Go,Right,0,Right,239,Low
jou-cmand1DR-20201110,jo,1,1150,22,32,Stop,Right,133,NoStart,0,Low
jou-cmand1DR-20201110,jo,1,1151,22,33,Stop,Left,133,Left,224,High
jou-cmand1DR-20201110,jo,1,1152,22,34,Stop,Left,50,NoResponse,0,High
jou-cmand1DR-20201110,jo,1,1153,22,35,Go,Right,0,Right,251,Low
jou-cmand1DR-20201110,jo,1,1154,22,36,Stop,Right,200,NoStart,0,Low
jou-cmand1DR-20201110,jo,1,1155,22,37,Stop,Left,333,Left,225,High
jou-cmand1DR-20201110,jo,1,1156,22,38,Go,Left,0,Left,251,High
jou-cmand1DR-20201110,jo,1,1157,23,1,Go,Right,0,Right,248,High
jou-cmand1DR-20201110,jo,1,1158,23,2,Stop,Right,200,Right,270,High
jou-cmand1DR-20201110,jo,1,1159,23,3,Go,Left,0,Left,311,Low
jou-cmand1DR-20201110,jo,1,1160,23,4,Stop,Right,133,NoStart,0,High
jou-cmand1DR-20201110,jo,1,1161,23,5,Go,Right,0,NoStart,0,High
jou-cmand1DR-20201110,jo,1,1162,23,6,Go,Left,0,NoStart,0,Low
jou-cmand1DR-20201110,jo,1,1163,23,7,Go,Left,0,NoStart,0,Low
jou-cmand1DR-20201110,jo,1,1164,23,8,Go,Right,0,Right,250,High
jou-cmand1DR-20201110,jo,1,1165,23,9,Go,Right,0,Right,248,High
jou-cmand1DR-20201110,jo,1,1166,23,10,Stop,Left,333,Left,291,Low
jou-cmand1DR-20201110,jo,1,1167,23,11,Stop,Right,267,Right,236,High
jou-cmand1DR-20201110,jo,1,1168,23,12,Stop,Right,133,NoResponse,0,High
jou-cmand1DR-20201110,jo,1,1169,23,13,Go,Left,0,Left,254,Low
jou-cmand1DR-20201110,jo,1,1170,23,14,Go,Right,0,Right,275,High
jou-cmand1DR-20201110,jo,1,1171,23,15,Go,Left,0,Left,475,Low
jou-cmand1DR-20201110,jo,1,1172,23,16,Go,Right,0,NoStart,0,High
jou-cmand1DR-20201110,jo,1,1173,23,17,Go,Right,0,Right,212,High
jou-cmand1DR-20201110,jo,1,1174,23,18,Stop,Left,333,Left,525,Low
jou-cmand1DR-20201110,jo,1,1175,23,19,Stop,Right,133,NoResponse,0,High
jou-cmand1DR-20201110,jo,1,1176,23,20,Go,Left,0,Left,282,Low
jou-cmand1DR-20201110,jo,1,1177,23,21,Go,Right,0,Right,230,High
jou-cmand1DR-20201110,jo,1,1178,23,22,Go,Right,0,Right,186,High
jou-cmand1DR-20201110,jo,1,1179,23,23,Stop,Left,333,NoStart,0,Low
jou-cmand1DR-20201110,jo,1,1180,23,24,Stop,Right,483,NoStart,0,High
jou-cmand1DR-20201110,jo,1,1181,23,25,Stop,Left,483,NoStart,0,Low
jou-cmand1DR-20201110,jo,1,1182,23,26,Go,Right,0,NoStart,0,High
jou-cmand1DR-20201110,jo,1,1183,23,27,Go,Left,0,Left,461,Low
jou-cmand1DR-20201110,jo,1,1184,23,28,Go,Left,0,Left,379,Low
jou-cmand1DR-20201110,jo,1,1185,23,29,Go,Left,0,Left,268,Low
jou-cmand1DR-20201110,jo,1,1186,23,30,Stop,Right,483,Right,230,High
jou-cmand1DR-20201110,jo,1,1187,23,31,Go,Left,0,NoStart,0,Low
jou-cmand1DR-20201110,jo,1,1188,23,32,Go,Left,0,NoStart,0,Low
jou-cmand1DR-20201110,jo,1,1189,23,33,Go,Left,0,NoStart,0,Low
jou-cmand1DR-20201110,jo,1,1190,23,34,Stop,Right,400,NoStart,0,High
jou-cmand1DR-20201110,jo,1,1191,23,35,Go,Right,0,NoStart,0,High
jou-cmand1DR-20201110,jo,1,1192,23,36,Stop,Right,267,NoStart,0,High
jou-cmand1DR-20201110,jo,1,1193,23,37,Go,Right,0,NoStart,0,High
jou-cmand1DR-20201110,jo,1,1194,23,38,Stop,Left,133,NoStart,0,Low
jou-cmand1DR-20201110,jo,1,1195,23,39,Go,Left,0,NoStart,0,Low
jou-cmand1DR-20201110,jo,1,1196,23,40,Go,Right,0,NoStart,0,High
jou-cmand1DR-20201110,jo,1,1197,23,41,Go,Right,0,NoStart,0,High
jou-cmand1DR-20201110,jo,1,1198,23,42,Stop,Right,50,NoStart,0,High
jou-cmand1DR-20201110,jo,1,1199,23,43,Stop,Left,50,NoStart,0,Low
jou-cmand1DR-20201110,jo,1,1200,23,44,Go,Right,0,NoStart,0,High
jou-cmand1DR-20201110,jo,1,1201,23,45,Go,Left,0,NoStart,0,Low
jou-cmand1DR-20201110,jo,1,1202,23,46,Go,Right,0,NoStart,0,High
jou-cmand1DR-20201110,jo,1,1203,23,47,Go,Right,0,NoStart,0,High
jou-cmand1DR-20201110,jo,1,1204,23,48,Stop,Right,50,NoStart,0,High
jou-cmand1DR-20201110,jo,1,1205,23,49,Go,Right,0,NoStart,0,High
jou-cmand1DR-20201110,jo,1,1206,23,50,Stop,Left,50,NoStart,0,Low
jou-cmand1DR-20201110,jo,1,1207,23,51,Go,Right,0,NoStart,0,High
jou-cmand1DR-20201110,jo,1,1208,23,52,Go,Left,0,NoStart,0,Low
jou-cmand1DR-20201110,jo,1,1209,23,53,Go,Left,0,NoStart,0,Low
jou-cmand1DR-20201110,jo,1,1210,23,54,Stop,Right,50,NoStart,0,High
jou-cmand1DR-20201110,jo,1,1211,23,55,Go,Right,0,NoStart,0,High
jou-cmand1DR-20201110,jo,1,1212,23,56,Go,Left,0,NoStart,0,Low
jou-cmand1DR-20201110,jo,1,1213,23,57,Stop,Left,50,NoStart,0,Low
jou-cmand1DR-20201110,jo,1,1214,23,58,Stop,Right,50,NoStart,0,High
jou-cmand1DR-20201110,jo,1,1215,23,59,Go,Right,0,NoStart,0,High
jou-cmand1DR-20201110,jo,1,1216,23,60,Stop,Left,50,NoStart,0,Low
jou-cmand1DR-20201110,jo,1,1217,23,61,Go,Right,0,NoStart,0,High
jou-cmand1DR-20201110,jo,1,1218,23,62,Go,Left,0,NoStart,0,Low
jou-cmand1DR-20201110,jo,1,1219,23,63,Go,Right,0,NoStart,0,High
jou-cmand1DR-20201110,jo,1,1220,23,64,Go,Right,0,NoStart,0,High
jou-cmand1DR-20201110,jo,1,1221,23,65,Stop,Right,50,NoStart,0,High
jou-cmand1DR-20201110,jo,1,1222,23,66,Stop,Right,50,NoStart,0,High
jou-cmand1DR-20201110,jo,1,1223,23,67,Go,Left,0,NoStart,0,Low
jou-cmand1DR-20201110,jo,1,1224,23,68,Go,Right,0,NoStart,0,High
jou-cmand1DR-20201110,jo,1,1225,23,69,Go,Left,0,NoStart,0,Low
jou-cmand1DR-20201110,jo,1,1226,23,70,Go,Left,0,NoStart,0,Low
jou-cmand1DR-20201110,jo,1,1227,23,71,Go,Left,0,NoStart,0,Low
jou-cmand1DR-20201110,jo,1,1228,23,72,Go,Right,0,NoStart,0,High
jou-cmand1DR-20201110,jo,1,1229,23,73,Go,Right,0,NoStart,0,High
jou-cmand1DR-20201110,jo,1,1230,23,74,Stop,Left,50,NoStart,0,Low
jou-cmand1DR-20201110,jo,1,1231,23,75,Stop,Left,50,NoStart,0,Low
jou-cmand1DR-20201110,jo,1,1232,23,76,Go,Left,0,NoStart,0,Low
jou-cmand1DR-20201110,jo,1,1233,23,77,Go,Left,0,NoStart,0,Low
jou-cmand1DR-20201110,jo,1,1234,23,78,Stop,Right,50,NoStart,0,High
jou-cmand1DR-20201110,jo,1,1235,23,79,Go,Left,0,NoStart,0,Low
jou-cmand1DR-20201110,jo,1,1236,23,80,Stop,Right,50,NoStart,0,High
jou-cmand1DR-20201110,jo,1,1237,23,81,Stop,Left,50,NoStart,0,Low
jou-cmand1DR-20201110,jo,1,1238,23,82,Stop,Right,50,NoStart,0,High
jou-cmand1DR-20201110,jo,1,1239,23,83,Go,Left,0,NoStart,0,Low
jou-cmand1DR-20201110,jo,1,1240,23,84,Go,Right,0,NoStart,0,High
jou-cmand1DR-20201110,jo,1,1241,23,85,Stop,Left,50,NoStart,0,Low
jou-cmand1DR-20201110,jo,1,1242,23,86,Go,Left,0,NoStart,0,Low
jou-cmand1DR-20201110,jo,1,1243,23,87,Stop,Left,50,NoStart,0,Low
jou-cmand1DR-20201110,jo,1,1244,23,88,Stop,Left,50,NoStart,0,Low
jou-cmand1DR-20201110,jo,1,1245,23,89,Go,Right,0,NoStart,0,High
jou-cmand1DR-20201110,jo,1,1246,23,90,Go,Left,0,NoStart,0,Low
jou-cmand1DR-20201110,jo,1,1247,23,91,Stop,Right,50,NoStart,0,High
jou-cmand1DR-20201110,jo,1,1248,23,92,Stop,Right,50,NoStart,0,High
jou-cmand1DR-20201110,jo,1,1249,23,93,Stop,Left,50,NoStart,0,Low
jou-cmand1DR-20201110,jo,1,1250,23,94,Go,Right,0,NoStart,0,High
jou-cmand1DR-20201110,jo,1,1251,23,95,Go,Left,0,NoStart,0,Low
jou-cmand1DR-20201110,jo,1,1252,23,96,Stop,Left,50,NoStart,0,Low
jou-cmand1DR-20201110,jo,1,1253,23,97,Stop,Right,50,NoStart,0,High
jou-cmand1DR-20201110,jo,1,1254,23,98,Go,Left,0,NoStart,0,Low
jou-cmand1DR-20201110,jo,1,1255,23,99,Stop,Left,50,NoStart,0,Low
jou-cmand1DR-20201110,jo,1,1256,23,100,Go,Right,0,NoStart,0,High
jou-cmand1DR-20201110,jo,1,1257,23,101,Go,Right,0,NoStart,0,High
jou-cmand1DR-20201110,jo,1,1258,23,102,Stop,Right,50,NoStart,0,High
jou-cmand1DR-20201110,jo,1,1259,23,103,Stop,Left,50,NoStart,0,Low
jou-cmand1DR-20201110,jo,1,1260,23,104,Stop,Left,50,NoStart,0,Low
jou-cmand1DR-20201110,jo,1,1261,23,105,Go,Right,0,NoStart,0,High
jou-cmand1DR-20201110,jo,1,1262,23,106,Stop,Right,50,NoStart,0,High
jou-cmand1DR-20201110,jo,1,1263,23,107,Go,Left,0,NoStart,0,Low
jou-cmand1DR-20201110,jo,1,1264,23,108,Stop,Left,50,NoStart,0,Low
jou-cmand1DR-20201110,jo,1,1265,23,109,Go,Right,0,NoStart,0,High
jou-cmand1DR-20201110,jo,1,1266,23,110,Stop,Left,50,NoStart,0,Low
jou-cmand1DR-20201110,jo,1,1267,23,111,Go,Left,0,NoStart,0,Low
jou-cmand1DR-20201110,jo,1,1268,23,112,Stop,Right,50,NoStart,0,High
jou-cmand1DR-20201110,jo,1,1269,23,113,Go,Left,0,NoStart,0,Low
jou-cmand1DR-20201110,jo,1,1270,23,114,Go,Right,0,NoStart,0,High
jou-cmand1DR-20201110,jo,1,1271,23,115,Stop,Right,50,NoStart,0,High
jou-cmand1DR-20201110,jo,1,1272,23,116,Go,Left,0,NoStart,0,Low
jou-cmand1DR-20201110,jo,1,1273,23,117,Go,Left,0,NoStart,0,Low
jou-cmand1DR-20201110,jo,1,1274,23,118,Go,Left,0,NoStart,0,Low
jou-cmand1DR-20201110,jo,1,1275,23,119,Stop,Left,50,NoStart,0,Low
jou-cmand1DR-20201110,jo,1,1276,23,120,Go,Right,0,NoStart,0,High
jou-cmand1DR-20201110,jo,1,1277,23,121,Stop,Left,50,NoStart,0,Low
jou-cmand1DR-20201110,jo,1,1278,23,122,Go,Left,0,NoStart,0,Low
jou-cmand1DR-20201110,jo,1,1279,23,123,Go,Right,0,NoStart,0,High
jou-cmand1DR-20201110,jo,1,1280,23,124,Go,Left,0,NoStart,0,Low
jou-cmand1DR-20201110,jo,1,1281,23,125,Go,Left,0,NoStart,0,Low
jou-cmand1DR-20201110,jo,1,1282,23,126,Go,Right,0,NoStart,0,High
jou-cmand1DR-20201110,jo,1,1283,23,127,Stop,Right,50,NoStart,0,High
jou-cmand1DR-20201110,jo,1,1284,23,128,Stop,Right,50,NoStart,0,High
jou-cmand1DR-20201110,jo,1,1285,23,129,Go,Right,0,NoStart,0,High
jou-cmand1DR-20201110,jo,1,1286,23,130,Go,Left,0,NoStart,0,Low
jou-cmand1DR-20201110,jo,1,1287,23,131,Go,Right,0,NoStart,0,High
jou-cmand1DR-20201110,jo,1,1288,23,132,Go,Left,0,NoStart,0,Low
jou-cmand1DR-20201110,jo,1,1289,23,133,Go,Right,0,NoStart,0,High
jou-cmand1DR-20201110,jo,1,1290,23,134,Go,Left,0,NoStart,0,Low
jou-cmand1DR-20201110,jo,1,1291,23,135,Stop,Left,50,NoStart,0,Low
jou-cmand1DR-20201110,jo,1,1292,23,136,Stop,Right,50,NoStart,0,High
jou-cmand1DR-20201110,jo,1,1293,23,137,Go,Right,0,NoStart,0,High
jou-cmand1DR-20201110,jo,1,1294,23,138,Go,Right,0,NoStart,0,High
jou-cmand1DR-20201110,jo,1,1295,23,139,Go,Left,0,NoStart,0,Low
jou-cmand1DR-20201110,jo,1,1296,23,140,Go,Left,0,NoStart,0,Low
jou-cmand1DR-20201110,jo,1,1297,23,141,Go,Right,0,NoStart,0,High
jou-cmand1DR-20201110,jo,1,1298,23,142,Stop,Left,50,NoStart,0,Low
jou-cmand1DR-20201110,jo,1,1299,23,143,Stop,Right,50,NoStart,0,High
jou-cmand1DR-20201110,jo,1,1300,23,144,Go,Left,0,NoStart,0,Low
jou-cmand1DR-20201110,jo,1,1301,23,145,Stop,Left,50,NoStart,0,Low
jou-cmand1DR-20201110,jo,1,1302,23,146,Go,Right,0,NoStart,0,High
jou-cmand1DR-20201110,jo,1,1303,23,147,Go,Right,0,NoStart,0,High
jou-cmand1DR-20201110,jo,1,1304,23,148,Go,Left,0,NoStart,0,Low
jou-cmand1DR-20201110,jo,1,1305,23,149,Go,Left,0,NoStart,0,Low
jou-cmand1DR-20201110,jo,1,1306,23,150,Stop,Right,50,NoStart,0,High
jou-cmand1DR-20201110,jo,1,1307,23,151,Go,Right,0,NoStart,0,High
jou-cmand1DR-20201110,jo,1,1308,23,152,Go,Right,0,NoStart,0,High
jou-cmand1DR-20201110,jo,1,1309,23,153,Go,Right,0,NoStart,0,High
jou-cmand1DR-20201110,jo,1,1310,23,154,Go,Right,0,NoStart,0,High
jou-cmand1DR-20201110,jo,1,1311,23,155,Go,Right,0,NoStart,0,High
jou-cmand1DR-20201110,jo,1,1312,23,156,Stop,Left,50,NoStart,0,Low
jou-cmand1DR-20201110,jo,1,1313,23,157,Stop,Left,50,NoStart,0,Low
jou-cmand1DR-20201110,jo,1,1314,23,158,Go,Left,0,NoStart,0,Low
jou-cmand1DR-20201110,jo,1,1315,23,159,Go,Left,0,NoStart,0,Low
jou-cmand1DR-20201110,jo,1,1316,23,160,Stop,Right,50,NoStart,0,High
jou-cmand1DR-20201110,jo,1,1317,23,161,Stop,Left,50,NoStart,0,Low
jou-cmand1DR-20201110,jo,1,1318,23,162,Go,Left,0,NoStart,0,Low
jou-cmand1DR-20201110,jo,1,1319,23,163,Go,Left,0,NoStart,0,Low
jou-cmand1DR-20201110,jo,1,1320,23,164,Stop,Left,50,NoStart,0,Low
jou-cmand1DR-20201110,jo,1,1321,23,165,Go,Left,0,NoStart,0,Low
jou-cmand1DR-20201110,jo,1,1322,23,166,Stop,Left,50,NoStart,0,Low
jou-cmand1DR-20201110,jo,1,1323,23,167,Stop,Left,50,NoStart,0,Low
jou-cmand1DR-20201110,jo,1,1324,23,168,Go,Left,0,NoStart,0,Low
jou-cmand1DR-20201110,jo,1,1325,23,169,Go,Left,0,NoStart,0,Low
jou-cmand1DR-20201110,jo,1,1326,23,170,Go,Left,0,Left,200,Low
jou-cmand1DR-20201110,jo,1,1327,23,171,Go,Left,0,NoStart,0,Low
jou-cmand1DR-20201110,jo,1,1328,23,172,Stop,Right,50,NoStart,0,High
jou-cmand1DR-20201110,jo,1,1329,23,173,Go,Right,0,NoStart,0,High
jou-cmand1DR-20201110,jo,1,1330,23,174,Go,Right,0,NoStart,0,High
jou-cmand1DR-20201110,jo,1,1331,23,175,Go,Right,0,NoStart,0,High
jou-cmand1DR-20201110,jo,1,1332,23,176,Go,Right,0,NoStart,0,High
jou-cmand1DR-20201110,jo,1,1333,23,177,Go,Right,0,NoStart,0,High
jou-cmand1DR-20201110,jo,1,1334,23,178,Stop,Right,50,NoResponse,0,High
jou-cmand1DR-20201110,jo,1,1335,23,179,Go,Left,0,Left,245,Low
jou-cmand1DR-20201110,jo,1,1336,23,180,Go,Right,0,NoStart,0,High
jou-cmand1DR-20201110,jo,1,1337,23,181,Go,Left,0,NoStart,0,Low
jou-cmand1DR-20201110,jo,1,1338,23,182,Go,Left,0,NoStart,0,Low
jou-cmand1DR-20201110,jo,1,1339,23,183,Go,Right,0,NoStart,0,High
jou-cmand1DR-20201110,jo,1,1340,23,184,Stop,Right,133,NoStart,0,High
jou-cmand1DR-20201110,jo,1,1341,23,185,Stop,Right,267,NoStart,0,High
jou-cmand1DR-20201110,jo,1,1342,23,186,Go,Right,0,NoStart,0,High
jou-cmand1DR-20201110,jo,1,1343,23,187,Go,Left,0,NoStart,0,Low
jou-cmand1DR-20201110,jo,1,1344,23,188,Stop,Right,400,NoStart,0,High
jou-cmand1DR-20201110,jo,1,1345,23,189,Go,Right,0,NoStart,0,High
jou-cmand1DR-20201110,jo,1,1346,23,190,Stop,Left,483,NoStart,0,Low
jou-cmand1DR-20201110,jo,1,1347,23,191,Go,Left,0,NoStart,0,Low
jou-cmand1DR-20201110,jo,1,1348,23,192,Stop,Right,483,NoStart,0,High
jou-cmand1DR-20201110,jo,1,1349,23,193,Go,Left,0,NoStart,0,Low
jou-cmand1DR-20201110,jo,1,1350,23,194,Go,Left,0,Left,300,Low
jou-cmand1DR-20201110,jo,1,1351,23,195,Stop,Left,483,NoStart,0,Low
jou-cmand1DR-20201110,jo,1,1352,23,196,Stop,Right,483,Right,228,High
jou-cmand1DR-20201110,jo,1,1353,23,197,Stop,Right,267,NoStart,0,High
jou-cmand1DR-20201110,jo,1,1354,23,198,Stop,Left,133,NoStart,0,Low
jou-cmand1DR-20201110,jo,1,1355,23,199,Go,Right,0,NoStart,0,High
jou-cmand1DR-20201110,jo,1,1356,23,200,Go,Left,0,NoStart,0,Low
jou-cmand1DR-20201110,jo,1,1357,23,201,Stop,Left,50,NoStart,0,Low
jou-cmand1DR-20201110,jo,1,1358,23,202,Stop,Left,50,NoStart,0,Low
jou-cmand1DR-20201110,jo,1,1359,23,203,Go,Left,0,Left,259,Low
jou-cmand1DR-20201110,jo,1,1360,23,204,Go,Left,0,NoStart,0,Low
jou-cmand1DR-20201110,jo,1,1361,23,205,Stop,Left,50,NoResponse,0,Low
jou-cmand1DR-20201110,jo,1,1362,23,206,Stop,Right,267,Right,194,High
jou-cmand1DR-20201110,jo,1,1363,23,207,Go,Right,0,NoStart,0,High
jou-cmand1DR-20201110,jo,1,1364,23,208,Go,Left,0,NoStart,0,Low
jou-cmand1DR-20201110,jo,1,1365,23,209,Go,Left,0,NoStart,0,Low
jou-cmand1DR-20201110,jo,1,1366,23,210,Go,Right,0,NoStart,0,High
jou-cmand1DR-20201110,jo,1,1367,23,211,Go,Left,0,NoStart,0,Low
jou-cmand1DR-20201110,jo,1,1368,23,212,Stop,Left,50,NoResponse,0,Low
jou-cmand1DR-20201110,jo,1,1369,23,213,Go,Right,0,Right,235,High
jou-cmand1DR-20201110,jo,1,1370,24,1,Go,Left,0,Left,298,High
jou-cmand1DR-20201110,jo,1,1371,24,2,Go,Left,0,Left,232,High
jou-cmand1DR-20201110,jo,1,1372,24,3,Stop,Right,267,Right,241,Low
jou-cmand1DR-20201110,jo,1,1373,24,4,Go,Right,0,Right,305,Low
jou-cmand1DR-20201110,jo,1,1374,24,5,Go,Right,0,Right,298,Low
jou-cmand1DR-20201110,jo,1,1375,24,6,Go,Left,0,Left,231,High
jou-cmand1DR-20201110,jo,1,1376,24,7,Go,Right,0,Right,491,Low
jou-cmand1DR-20201110,jo,1,1377,24,8,Go,Right,0,Right,395,Low
jou-cmand1DR-20201110,jo,1,1378,24,9,Go,Left,0,Left,171,High
jou-cmand1DR-20201110,jo,1,1379,24,10,Stop,Left,133,Left,212,High
jou-cmand1DR-20201110,jo,1,1380,24,11,Go,Right,0,Right,296,Low
jou-cmand1DR-20201110,jo,1,1381,24,12,Stop,Right,50,NoStart,0,Low
jou-cmand1DR-20201110,jo,1,1382,24,13,Go,Left,0,Left,225,High
jou-cmand1DR-20201110,jo,1,1383,24,14,Stop,Left,50,NoResponse,0,High
jou-cmand1DR-20201110,jo,1,1384,24,15,Stop,Left,200,NoResponse,0,High
jou-cmand1DR-20201110,jo,1,1385,24,16,Stop,Left,267,Left,291,High
jou-cmand1DR-20201110,jo,1,1386,24,17,Go,Right,0,Right,532,Low
jou-cmand1DR-20201110,jo,1,1387,24,18,Go,Right,0,Right,272,Low
jou-cmand1DR-20201110,jo,1,1388,24,19,Stop,Left,133,NoStart,0,High
jou-cmand1DR-20201110,jo,1,1389,24,20,Go,Left,0,NoStart,0,High
jou-cmand1DR-20201110,jo,1,1390,24,21,Go,Right,0,NoStart,0,Low
jou-cmand1DR-20201110,jo,1,1391,24,22,Go,Left,0,NoStart,0,High
jou-cmand1DR-20201110,jo,1,1392,24,23,Go,Right,0,NoStart,0,Low
jou-cmand1DR-20201110,jo,1,1393,24,24,Stop,Right,50,NoResponse,0,Low
jou-cmand1DR-20201110,jo,1,1394,24,25,Stop,Right,267,Right,306,Low
jou-cmand1DR-20201110,jo,1,1395,24,26,Stop,Left,200,Left,226,High
jou-cmand1DR-20201110,jo,1,1396,24,27,Go,Left,0,Left,342,High
jou-cmand1DR-20201110,jo,1,1397,24,28,Go,Left,0,Left,246,High
jou-cmand1DR-20201110,jo,1,1398,24,29,Go,Right,0,Right,317,Low
jou-cmand1DR-20201110,jo,1,1399,24,30,Go,Left,0,Left,233,High
jou-cmand1DR-20201110,jo,1,1400,24,31,Go,Right,0,NoStart,0,Low
jou-cmand1DR-20201110,jo,1,1401,24,32,Go,Right,0,Right,563,Low
jou-cmand1DR-20201110,jo,1,1402,24,33,Stop,Left,133,NoResponse,0,High
jou-cmand1DR-20201110,jo,1,1403,24,34,Go,Left,0,NoStart,0,High
jou-cmand1DR-20201110,jo,1,1404,24,35,Stop,Right,333,NoResponse,0,Low
jou-cmand1DR-20201110,jo,1,1405,24,36,Go,Right,0,Right,367,Low
jou-cmand1DR-20201110,jo,1,1406,24,37,Stop,Right,483,Right,549,Low
jou-cmand1DR-20201110,jo,1,1407,24,38,Go,Right,0,Right,310,Low
jou-cmand1DR-20201110,jo,1,1408,24,39,Stop,Right,333,Right,354,Low
jou-cmand1DR-20201110,jo,1,1409,24,40,Stop,Right,200,NoResponse,0,Low
jou-cmand1DR-20201110,jo,1,1410,24,41,Go,Right,0,Right,438,Low
jou-cmand1DR-20201110,jo,1,1411,24,42,Go,Right,0,Right,457,Low
jou-cmand1DR-20201110,jo,1,1412,25,1,Go,Left,0,Left,215,Low
jou-cmand1DR-20201110,jo,1,1413,25,2,Go,Right,0,Right,315,High
jou-cmand1DR-20201110,jo,1,1414,25,3,Go,Left,0,Left,307,Low
jou-cmand1DR-20201110,jo,1,1415,25,4,Stop,Right,267,Right,314,High
jou-cmand1DR-20201110,jo,1,1416,25,5,Go,Right,0,Right,335,High
jou-cmand1DR-20201110,jo,1,1417,25,6,Go,Right,0,Right,269,High
jou-cmand1DR-20201110,jo,1,1418,25,7,Go,Left,0,Left,418,Low
jou-cmand1DR-20201110,jo,1,1419,25,8,Stop,Left,200,NoResponse,0,Low
jou-cmand1DR-20201110,jo,1,1420,25,9,Stop,Left,333,Left,318,Low
jou-cmand1DR-20201110,jo,1,1421,25,10,Go,Left,0,Left,329,Low
jou-cmand1DR-20201110,jo,1,1422,25,11,Go,Left,0,Left,484,Low
jou-cmand1DR-20201110,jo,1,1423,25,12,Go,Right,0,Right,291,High
jou-cmand1DR-20201110,jo,1,1424,25,13,Go,Left,0,NoStart,0,Low
jou-cmand1DR-20201110,jo,1,1425,25,14,Go,Left,0,NoStart,0,Low
jou-cmand1DR-20201110,jo,1,1426,25,15,Stop,Right,50,NoStart,0,High
jou-cmand1DR-20201110,jo,1,1427,25,16,Go,Right,0,NoStart,0,High
jou-cmand1DR-20201110,jo,1,1428,25,17,Go,Left,0,NoStart,0,Low
jou-cmand1DR-20201110,jo,1,1429,25,18,Go,Left,0,NoStart,0,Low
jou-cmand1DR-20201110,jo,1,1430,25,19,Stop,Left,400,NoStart,0,Low
jou-cmand1DR-20201110,jo,1,1431,25,20,Stop,Right,483,NoStart,0,High
jou-cmand1DR-20201110,jo,1,1432,25,21,Go,Left,0,NoStart,0,Low
jou-cmand1DR-20201110,jo,1,1433,25,22,Go,Left,0,NoStart,0,Low
jou-cmand1DR-20201110,jo,1,1434,25,23,Go,Right,0,NoStart,0,High
jou-cmand1DR-20201110,jo,1,1435,25,24,Stop,Left,400,Left,458,Low
jou-cmand1DR-20201110,jo,1,1436,25,25,Stop,Left,267,Left,328,Low
jou-cmand1DR-20201110,jo,1,1437,25,26,Stop,Right,133,NoStart,0,High
jou-cmand1DR-20201110,jo,1,1438,25,27,Go,Right,0,Right,348,High
jou-cmand1DR-20201110,jo,1,1439,25,28,Stop,Right,133,NoResponse,0,High
jou-cmand1DR-20201110,jo,1,1440,25,29,Go,Left,0,Left,384,Low
jou-cmand1DR-20201110,jo,1,1441,25,30,Stop,Left,200,NoStart,0,Low
jou-cmand1DR-20201110,jo,1,1442,25,31,Go,Left,0,Left,265,Low
jou-cmand1DR-20201110,jo,1,1443,25,32,Go,Left,0,Left,200,Low
jou-cmand1DR-20201110,jo,1,1444,25,33,Go,Right,0,Right,260,High
jou-cmand1DR-20201110,jo,1,1445,25,34,Stop,Left,400,Left,326,Low
jou-cmand1DR-20201110,jo,1,1446,25,35,Stop,Right,200,Right,248,High
jou-cmand1DR-20201110,jo,1,1447,25,36,Go,Right,0,NoStart,0,High
jou-cmand1DR-20201110,jo,1,1448,25,37,Go,Left,0,NoStart,0,Low
jou-cmand1DR-20201110,jo,1,1449,25,38,Go,Left,0,NoStart,0,Low
jou-cmand1DR-20201110,jo,1,1450,25,39,Go,Left,0,Left,310,Low
jou-cmand1DR-20201110,jo,1,1451,25,40,Go,Right,0,Right,245,High
jou-cmand1DR-20201110,jo,1,1452,25,41,Go,Left,0,Left,317,Low
jou-cmand1DR-20201110,jo,1,1453,25,42,Stop,Right,50,NoResponse,0,High
jou-cmand1DR-20201110,jo,1,1454,25,43,Stop,Right,200,NoStart,0,High
jou-cmand1DR-20201110,jo,1,1455,25,44,Stop,Right,200,Right,235,High
jou-cmand1DR-20201110,jo,1,1456,25,45,Go,Left,0,Left,558,Low
jou-cmand1DR-20201110,jo,1,1457,25,46,Go,Right,0,Right,240,High
jou-cmand1DR-20201110,jo,1,1458,26,1,Go,Right,0,Right,276,Low
jou-cmand1DR-20201110,jo,1,1459,26,2,Stop,Right,50,NoStart,0,Low
jou-cmand1DR-20201110,jo,1,1460,26,3,Stop,Right,50,NoResponse,0,Low
jou-cmand1DR-20201110,jo,1,1461,26,4,Go,Left,0,Left,275,High
jou-cmand1DR-20201110,jo,1,1462,26,5,Stop,Right,200,NoResponse,0,Low
jou-cmand1DR-20201110,jo,1,1463,26,6,Go,Right,0,Right,310,Low
jou-cmand1DR-20201110,jo,1,1464,26,7,Go,Right,0,Right,279,Low
jou-cmand1DR-20201110,jo,1,1465,26,8,Go,Right,0,NoStart,0,Low
jou-cmand1DR-20201110,jo,1,1466,26,9,Go,Left,0,Left,244,High
jou-cmand1DR-20201110,jo,1,1467,26,10,Stop,Left,133,NoResponse,0,High
jou-cmand1DR-20201110,jo,1,1468,26,11,Go,Left,0,Left,221,High
jou-cmand1DR-20201110,jo,1,1469,26,12,Stop,Left,200,NoResponse,0,High
jou-cmand1DR-20201110,jo,1,1470,26,13,Go,Left,0,Left,274,High
jou-cmand1DR-20201110,jo,1,1471,26,14,Go,Right,0,Right,338,Low
jou-cmand1DR-20201110,jo,1,1472,26,15,Stop,Right,333,Right,301,Low
jou-cmand1DR-20201110,jo,1,1473,26,16,Go,Left,0,Left,266,High
jou-cmand1DR-20201110,jo,1,1474,26,17,Go,Left,0,Left,284,High
jou-cmand1DR-20201110,jo,1,1475,26,18,Go,Right,0,Right,269,Low
jou-cmand1DR-20201110,jo,1,1476,26,19,Stop,Right,133,NoResponse,0,Low
jou-cmand1DR-20201110,jo,1,1477,26,20,Go,Left,0,NoStart,0,High
jou-cmand1DR-20201110,jo,1,1478,26,21,Go,Right,0,NoStart,0,Low
jou-cmand1DR-20201110,jo,1,1479,26,22,Go,Left,0,NoStart,0,High
jou-cmand1DR-20201110,jo,1,1480,26,23,Stop,Left,200,NoStart,0,High
jou-cmand1DR-20201110,jo,1,1481,26,24,Stop,Left,267,NoStart,0,High
jou-cmand1DR-20201110,jo,1,1482,26,25,Stop,Right,333,NoStart,0,Low
jou-cmand1DR-20201110,jo,1,1483,26,26,Stop,Right,400,Right,345,Low
jou-cmand1DR-20201110,jo,1,1484,26,27,Go,Left,0,Left,231,High
jou-cmand1DR-20201110,jo,1,1485,27,1,Go,Right,0,NoStart,0,High
jou-cmand1DR-20201110,jo,1,1486,27,2,Stop,Left,333,Left,255,Low
jou-cmand1DR-20201110,jo,1,1487,27,3,Go,Left,0,Left,227,Low
jou-cmand1DR-20201110,jo,1,1488,27,4,Stop,Left,200,Left,231,Low
jou-cmand1DR-20201110,jo,1,1489,27,5,Go,Right,0,Right,326,High
jou-cmand1DR-20201110,jo,1,1490,27,6,Go,Left,0,NoStart,0,Low
jou-cmand1DR-20201110,jo,1,1491,27,7,Stop,Right,133,NoStart,0,High
jou-cmand1DR-20201110,jo,1,1492,27,8,Go,Right,0,Right,319,High
jou-cmand1DR-20201110,jo,1,1493,27,9,Go,Right,0,Right,272,High
jou-cmand1DR-20201110,jo,1,1494,27,10,Go,Right,0,Right,243,High
jou-cmand1DR-20201110,jo,1,1495,27,11,Go,Left,0,Left,296,Low
jou-cmand1DR-20201110,jo,1,1496,27,12,Go,Left,0,Left,314,Low
jou-cmand1DR-20201110,jo,1,1497,27,13,Stop,Left,200,NoStart,0,Low
jou-cmand1DR-20201110,jo,1,1498,27,14,Go,Left,0,NoStart,0,Low
jou-cmand1DR-20201110,jo,1,1499,27,15,Go,Right,0,NoStart,0,High
jou-cmand1DR-20201110,jo,1,1500,27,16,Stop,Right,333,NoStart,0,High
jou-cmand1DR-20201110,jo,1,1501,27,17,Stop,Right,483,NoStart,0,High
jou-cmand1DR-20201110,jo,1,1502,27,18,Stop,Right,133,NoStart,0,High
jou-cmand1DR-20201110,jo,1,1503,27,19,Go,Left,0,Left,188,Low
jou-cmand1DR-20201110,jo,1,1504,27,20,Go,Left,0,Left,216,Low
jou-cmand1DR-20201110,jo,1,1505,27,21,Go,Left,0,Left,273,Low
jou-cmand1DR-20201110,jo,1,1506,27,22,Stop,Right,200,Right,233,High
jou-cmand1DR-20201110,jo,1,1507,27,23,Go,Left,0,NoStart,0,Low
jou-cmand1DR-20201110,jo,1,1508,27,24,Go,Right,0,Right,296,High
jou-cmand1DR-20201110,jo,1,1509,27,25,Go,Left,0,Left,279,Low
jou-cmand1DR-20201110,jo,1,1510,27,26,Go,Left,0,Left,257,Low
jou-cmand1DR-20201110,jo,1,1511,27,27,Stop,Right,267,Right,243,High
jou-cmand1DR-20201110,jo,1,1512,27,28,Go,Left,0,Left,314,Low
jou-cmand1DR-20201110,jo,1,1513,27,29,Stop,Right,50,NoStart,0,High
jou-cmand1DR-20201110,jo,1,1514,27,30,Go,Left,0,Left,321,Low
jou-cmand1DR-20201110,jo,1,1515,27,31,Go,Right,0,NoStart,0,High
jou-cmand1DR-20201110,jo,1,1516,27,32,Go,Right,0,NoStart,0,High
jou-cmand1DR-20201110,jo,1,1517,27,33,Stop,Right,50,NoResponse,0,High
jou-cmand1DR-20201110,jo,1,1518,27,34,Go,Right,0,Right,321,High
jou-cmand1DR-20201110,jo,1,1519,27,35,Stop,Left,133,NoResponse,0,Low
jou-cmand1DR-20201110,jo,1,1520,27,36,Go,Right,0,Right,287,High
jou-cmand1DR-20201110,jo,1,1521,27,37,Stop,Left,200,NoStart,0,Low
jou-cmand1DR-20201110,jo,1,1522,27,38,Stop,Left,400,Left,341,Low
jou-cmand1DR-20201110,jo,1,1523,27,39,Stop,Left,200,Left,254,Low
jou-cmand1DR-20201110,jo,1,1524,27,40,Go,Left,0,Left,292,Low
jou-cmand1DR-20201110,jo,1,1525,27,41,Stop,Right,483,Right,270,High
jou-cmand1DR-20201110,jo,1,1526,27,42,Go,Right,0,Right,475,High
jou-cmand1DR-20201110,jo,1,1527,27,43,Go,Right,0,Right,308,High
jou-cmand1DR-20201110,jo,1,1528,27,44,Go,Left,0,Left,280,Low
jou-cmand1DR-20201110,jo,1,1529,28,1,Stop,Right,333,Right,290,Low
jou-cmand1DR-20201110,jo,1,1530,28,2,Go,Right,0,Right,311,Low
jou-cmand1DR-20201110,jo,1,1531,28,3,Go,Right,0,Right,361,Low
jou-cmand1DR-20201110,jo,1,1532,28,4,Go,Left,0,Left,228,High
jou-cmand1DR-20201110,jo,1,1533,28,5,Go,Left,0,Left,244,High
jou-cmand1DR-20201110,jo,1,1534,28,6,Go,Left,0,Left,251,High
jou-cmand1DR-20201110,jo,1,1535,28,7,Go,Right,0,Right,340,Low
jou-cmand1DR-20201110,jo,1,1536,28,8,Stop,Left,200,Left,233,High
jou-cmand1DR-20201110,jo,1,1537,28,9,Go,Right,0,Right,388,Low
jou-cmand1DR-20201110,jo,1,1538,28,10,Go,Left,0,Left,239,High
jou-cmand1DR-20201110,jo,1,1539,28,11,Go,Left,0,Left,243,High
jou-cmand1DR-20201110,jo,1,1540,28,12,Go,Right,0,Right,575,Low
jou-cmand1DR-20201110,jo,1,1541,28,13,Go,Right,0,NoStart,0,Low
jou-cmand1DR-20201110,jo,1,1542,28,14,Stop,Left,267,Left,237,High
jou-cmand1DR-20201110,jo,1,1543,28,15,Go,Left,0,Left,207,High
jou-cmand1DR-20201110,jo,1,1544,28,16,Stop,Left,133,NoStart,0,High
jou-cmand1DR-20201110,jo,1,1545,28,17,Go,Right,0,Right,325,Low
jou-cmand1DR-20201110,jo,1,1546,28,18,Stop,Right,133,NoResponse,0,Low
jou-cmand1DR-20201110,jo,1,1547,28,19,Stop,Right,267,Right,299,Low
jou-cmand1DR-20201110,jo,1,1548,28,20,Go,Right,0,Right,290,Low
jou-cmand1DR-20201110,jo,1,1549,28,21,Stop,Right,133,NoResponse,0,Low
jou-cmand1DR-20201110,jo,1,1550,28,22,Go,Left,0,Left,199,High
jou-cmand1DR-20201110,jo,1,1551,28,23,Stop,Right,267,NoResponse,0,Low
jou-cmand1DR-20201110,jo,1,1552,28,24,Stop,Left,400,Left,282,High
jou-cmand1DR-20201110,jo,1,1553,28,25,Go,Left,0,Left,403,High
jou-cmand1DR-20201110,jo,1,1554,28,26,Stop,Right,333,Right,362,Low
jou-cmand1DR-20201110,jo,1,1555,28,27,Stop,Left,200,Left,215,High
