sessionName,monkeyName,sessionN,trial,block,blocktrial,trialType,targetLoc,ssd,response,rt,value
jou-cmand1DR-20201112,jo,2,1,1,1,Go,Right,0,Right,277,High
jou-cmand1DR-20201112,jo,2,2,1,2,Stop,Right,133,NoResponse,0,High
jou-cmand1DR-20201112,jo,2,3,1,3,Stop,Right,267,NoStart,0,High
jou-cmand1DR-20201112,jo,2,4,1,4,Stop,Right,267,NoResponse,0,High
jou-cmand1DR-20201112,jo,2,5,1,5,Stop,Right,400,Right,365,High
jou-cmand1DR-20201112,jo,2,6,1,6,Go,Right,0,Right,338,High
jou-cmand1DR-20201112,jo,2,7,1,7,Go,Left,0,Left,355,Low
jou-cmand1DR-20201112,jo,2,8,1,8,Go,Left,0,Left,468,Low
jou-cmand1DR-20201112,jo,2,9,1,9,Go,Left,0,Left,463,Low
jou-cmand1DR-20201112,jo,2,10,1,10,Go,Right,0,Right,294,High
jou-cmand1DR-20201112,jo,2,11,1,11,Go,Left,0,Left,311,Low
jou-cmand1DR-20201112,jo,2,12,1,12,Go,Right,0,Right,266,High
jou-cmand1DR-20201112,jo,2,13,1,13,Go,Left,0,Left,332,Low
jou-cmand1DR-20201112,jo,2,14,1,14,Go,Right,0,Right,244,High
jou-cmand1DR-20201112,jo,2,15,1,15,Go,Left,0,Left,266,Low
jou-cmand1DR-20201112,jo,2,16,1,16,Stop,Right,200,NoResponse,0,High
jou-cmand1DR-20201112,jo,2,17,1,17,Stop,Left,333,NoStart,0,Low
jou-cmand1DR-20201112,jo,2,18,1,18,Go,Right,0,Right,503,High
jou-cmand1DR-20201112,jo,2,19,1,19,Stop,Right,333,Right,257,High
jou-cmand1DR-20201112,jo,2,20,1,20,Go,Right,0,Right,232,High
jou-cmand1DR-20201112,jo,2,21,1,21,Go,Right,0,Right,245,High
jou-cmand1DR-20201112,jo,2,22,1,22,Stop,Right,200,NoResponse,0,High
jou-cmand1DR-20201112,jo,2,23,2,1,Stop,Right,400,Right,296,Low
jou-cmand1DR-20201112,jo,2,24,2,2,Go,Right,0,Right,257,Low
jou-cmand1DR-20201112,jo,2,25,2,3,Stop,Left,333,Left,371,High
jou-cmand1DR-20201112,jo,2,26,2,4,Go,Left,0,Left,375,High
jou-cmand1DR-20201112,jo,2,27,2,5,Go,Right,0,Right,453,Low
jou-cmand1DR-20201112,jo,2,28,2,6,Stop,Left,200,NoStart,0,High
jou-cmand1DR-20201112,jo,2,29,2,7,Stop,Right,200,NoStart,0,Low
jou-cmand1DR-20201112,jo,2,30,2,8,Go,Left,0,Left,303,High
jou-cmand1DR-20201112,jo,2,31,2,9,Go,Left,0,Left,249,High
jou-cmand1DR-20201112,jo,2,32,2,10,Go,Right,0,Right,378,Low
jou-cmand1DR-20201112,jo,2,33,2,11,Go,Right,0,Right,320,Low
jou-cmand1DR-20201112,jo,2,34,2,12,Stop,Right,200,NoResponse,0,Low
jou-cmand1DR-20201112,jo,2,35,2,13,Go,Right,0,Right,332,Low
jou-cmand1DR-20201112,jo,2,36,2,14,Go,Right,0,Right,331,Low
jou-cmand1DR-20201112,jo,2,37,2,15,Go,Right,0,Right,586,Low
jou-cmand1DR-20201112,jo,2,38,2,16,Go,Left,0,Left,246,High
jou-cmand1DR-20201112,jo,2,39,2,17,Go,Right,0,Right,398,Low
jou-cmand1DR-20201112,jo,2,40,2,18,Stop,Left,400,Left,245,High
jou-cmand1DR-20201112,jo,2,41,2,19,Stop,Left,333,Left,314,High
jou-cmand1DR-20201112,jo,2,42,2,20,Go,Left,0,Left,296,High
jou-cmand1DR-20201112,jo,2,43,2,21,Go,Left,0,NoStart,0,High
jou-cmand1DR-20201112,jo,2,44,2,22,Go,Right,0,Right,545,Low
jou-cmand1DR-20201112,jo,2,45,2,23,Stop,Right,133,NoStart,0,Low
jou-cmand1DR-20201112,jo,2,46,2,24,Stop,Left,333,Left,260,High
jou-cmand1DR-20201112,jo,2,47,2,25,Stop,Right,133,NoResponse,0,Low
jou-cmand1DR-20201112,jo,2,48,2,26,Go,Right,0,Right,367,Low
jou-cmand1DR-20201112,jo,2,49,2,27,Stop,Right,267,NoResponse,0,Low
jou-cmand1DR-20201112,jo,2,50,2,28,Stop,Left,483,Left,271,High
jou-cmand1DR-20201112,jo,2,51,2,29,Go,Left,0,NoStart,0,High
jou-cmand1DR-20201112,jo,2,52,2,30,Go,Left,0,Left,249,High
jou-cmand1DR-20201112,jo,2,53,2,31,Go,Left,0,Left,324,High
jou-cmand1DR-20201112,jo,2,54,2,32,Go,Left,0,NoStart,0,High
jou-cmand1DR-20201112,jo,2,55,2,33,Go,Left,0,NoStart,0,High
jou-cmand1DR-20201112,jo,2,56,2,34,Go,Left,0,NoStart,0,High
jou-cmand1DR-20201112,jo,2,57,2,35,Go,Left,0,Left,292,High
jou-cmand1DR-20201112,jo,2,58,2,36,Stop,Left,333,Left,293,High
jou-cmand1DR-20201112,jo,2,59,2,37,Go,Right,0,Right,323,Low
jou-cmand1DR-20201112,jo,2,60,2,38,Stop,Right,133,NoResponse,0,Low
jou-cmand1DR-20201112,jo,2,61,2,39,Stop,Left,200,Left,269,High
jou-cmand1DR-20201112,jo,2,62,2,40,Go,Left,0,Left,256,High
jou-cmand1DR-20201112,jo,2,63,2,41,Stop,Right,50,NoResponse,0,Low
jou-cmand1DR-20201112,jo,2,64,2,42,Stop,Left,267,NoResponse,0,High
jou-cmand1DR-20201112,jo,2,65,3,1,Go,Right,0,Right,345,High
jou-cmand1DR-20201112,jo,2,66,3,2,Go,Left,0,Left,303,Low
jou-cmand1DR-20201112,jo,2,67,3,3,Stop,Left,483,Left,306,Low
jou-cmand1DR-20201112,jo,2,68,3,4,Stop,Right,400,Right,271,High
jou-cmand1DR-20201112,jo,2,69,3,5,Go,Right,0,Right,269,High
jou-cmand1DR-20201112,jo,2,70,3,6,Go,Left,0,Left,319,Low
jou-cmand1DR-20201112,jo,2,71,3,7,Go,Left,0,Left,361,Low
jou-cmand1DR-20201112,jo,2,72,3,8,Go,Left,0,Left,489,Low
jou-cmand1DR-20201112,jo,2,73,3,9,Go,Left,0,Left,397,Low
jou-cmand1DR-20201112,jo,2,74,3,10,Stop,Left,333,Left,394,Low
jou-cmand1DR-20201112,jo,2,75,3,11,Go,Right,0,NoStart,0,High
jou-cmand1DR-20201112,jo,2,76,3,12,Go,Left,0,NoStart,0,Low
jou-cmand1DR-20201112,jo,2,77,3,13,Go,Right,0,Right,247,High
jou-cmand1DR-20201112,jo,2,78,3,14,Go,Left,0,NoStart,0,Low
jou-cmand1DR-20201112,jo,2,79,3,15,Go,Right,0,Right,272,High
jou-cmand1DR-20201112,jo,2,80,3,16,Stop,Left,50,NoResponse,0,Low
jou-cmand1DR-20201112,jo,2,81,3,17,Go,Left,0,NoStart,0,Low
jou-cmand1DR-20201112,jo,2,82,3,18,Go,Right,0,NoStart,0,High
jou-cmand1DR-20201112,jo,2,83,3,19,Stop,Left,200,NoResponse,0,Low
jou-cmand1DR-20201112,jo,2,84,3,20,Stop,Right,333,Right,238,High
jou-cmand1DR-20201112,jo,2,85,3,21,Go,Left,0,NoStart,0,Low
jou-cmand1DR-20201112,jo,2,86,3,22,Stop,Right,200,NoResponse,0,High
jou-cmand1DR-20201112,jo,2,87,3,23,Stop,Left,267,NoResponse,0,Low
jou-cmand1DR-20201112,jo,2,88,3,24,Go,Left,0,Left,274,Low
jou-cmand1DR-20201112,jo,2,89,3,25,Stop,Left,400,Left,253,Low
jou-cmand1DR-20201112,jo,2,90,3,26,Go,Right,0,Right,273,High
jou-cmand1DR-20201112,jo,2,91,3,27,Stop,Right,200,NoResponse,0,High
jou-cmand1DR-20201112,jo,2,92,3,28,Go,Right,0,Right,321,High
jou-cmand1DR-20201112,jo,2,93,3,29,Stop,Left,400,NoStart,0,Low
jou-cmand1DR-20201112,jo,2,94,3,30,Stop,Left,400,Left,443,Low
jou-cmand1DR-20201112,jo,2,95,3,31,Go,Right,0,NoStart,0,High
jou-cmand1DR-20201112,jo,2,96,3,32,Go,Right,0,NoStart,0,High
jou-cmand1DR-20201112,jo,2,97,3,33,Go,Right,0,Right,411,High
jou-cmand1DR-20201112,jo,2,98,3,34,Go,Left,0,Left,339,Low
jou-cmand1DR-20201112,jo,2,99,3,35,Go,Left,0,NoStart,0,Low
jou-cmand1DR-20201112,jo,2,100,3,36,Stop,Left,200,NoStart,0,Low
jou-cmand1DR-20201112,jo,2,101,3,37,Go,Right,0,NoStart,0,High
jou-cmand1DR-20201112,jo,2,102,3,38,Stop,Left,50,NoStart,0,Low
jou-cmand1DR-20201112,jo,2,103,3,39,Go,Left,0,NoStart,0,Low
jou-cmand1DR-20201112,jo,2,104,3,40,Stop,Left,50,NoStart,0,Low
jou-cmand1DR-20201112,jo,2,105,3,41,Go,Right,0,NoStart,0,High
jou-cmand1DR-20201112,jo,2,106,3,42,Stop,Right,50,NoStart,0,High
jou-cmand1DR-20201112,jo,2,107,3,43,Stop,Right,50,NoStart,0,High
jou-cmand1DR-20201112,jo,2,108,3,44,Stop,Right,50,NoStart,0,High
jou-cmand1DR-20201112,jo,2,109,3,45,Go,Right,0,NoStart,0,High
jou-cmand1DR-20201112,jo,2,110,3,46,Stop,Left,50,NoStart,0,Low
jou-cmand1DR-20201112,jo,2,111,3,47,Go,Left,0,NoStart,0,Low
jou-cmand1DR-20201112,jo,2,112,3,48,Go,Right,0,NoStart,0,High
jou-cmand1DR-20201112,jo,2,113,3,49,Go,Right,0,NoStart,0,High
jou-cmand1DR-20201112,jo,2,114,3,50,Go,Left,0,NoStart,0,Low
jou-cmand1DR-20201112,jo,2,115,3,51,Go,Right,0,NoStart,0,High
jou-cmand1DR-20201112,jo,2,116,3,52,Go,Left,0,NoStart,0,Low
jou-cmand1DR-20201112,jo,2,117,3,53,Stop,Left,50,NoStart,0,Low
jou-cmand1DR-20201112,jo,2,118,3,54,Go,Right,0,NoStart,0,High
jou-cmand1DR-20201112,jo,2,119,3,55,Go,Left,0,NoStart,0,Low
jou-cmand1DR-20201112,jo,2,120,3,56,Stop,Left,50,NoStart,0,Low
jou-cmand1DR-20201112,jo,2,121,3,57,Go,Right,0,NoStart,0,High
jou-cmand1DR-20201112,jo,2,122,3,58,Go,Left,0,NoStart,0,Low
jou-cmand1DR-20201112,jo,2,123,3,59,Go,Right,0,NoStart,0,High
jou-cmand1DR-20201112,jo,2,124,3,60,Go,Right,0,NoStart,0,High
jou-cmand1DR-20201112,jo,2,125,3,61,Go,Right,0,NoStart,0,High
jou-cmand1DR-20201112,jo,2,126,3,62,Go,Right,0,Right,400,High
jou-cmand1DR-20201112,jo,2,127,3,63,Stop,Right,200,NoResponse,0,High
jou-cmand1DR-20201112,jo,2,128,3,64,Go,Right,0,Right,453,High
jou-cmand1DR-20201112,jo,2,129,4,1,Stop,Right,267,Right,271,Low
jou-cmand1DR-20201112,jo,2,130,4,2,Stop,Left,133,NoResponse,0,High
jou-cmand1DR-20201112,jo,2,131,4,3,Go,Right,0,Right,391,Low
jou-cmand1DR-20201112,jo,2,132,4,4,Go,Right,0,Right,598,Low
jou-cmand1DR-20201112,jo,2,133,4,5,Go,Right,0,Right,493,Low
jou-cmand1DR-20201112,jo,2,134,4,6,Stop,Left,333,Left,272,High
jou-cmand1DR-20201112,jo,2,135,4,7,Stop,Left,200,Left,268,High
jou-cmand1DR-20201112,jo,2,136,4,8,Go,Left,0,Left,274,High
jou-cmand1DR-20201112,jo,2,137,4,9,Go,Left,0,Left,286,High
jou-cmand1DR-20201112,jo,2,138,4,10,Go,Left,0,Left,230,High
jou-cmand1DR-20201112,jo,2,139,4,11,Go,Left,0,Left,231,High
jou-cmand1DR-20201112,jo,2,140,4,12,Go,Left,0,Left,240,High
jou-cmand1DR-20201112,jo,2,141,4,13,Stop,Left,50,NoResponse,0,High
jou-cmand1DR-20201112,jo,2,142,4,14,Stop,Right,200,NoResponse,0,Low
jou-cmand1DR-20201112,jo,2,143,4,15,Go,Right,0,NoStart,0,Low
jou-cmand1DR-20201112,jo,2,144,4,16,Stop,Right,400,NoResponse,0,Low
jou-cmand1DR-20201112,jo,2,145,4,17,Go,Left,0,Left,204,High
jou-cmand1DR-20201112,jo,2,146,4,18,Go,Left,0,Left,244,High
jou-cmand1DR-20201112,jo,2,147,5,1,Go,Right,0,Right,325,High
jou-cmand1DR-20201112,jo,2,148,5,2,Stop,Right,483,Right,229,High
jou-cmand1DR-20201112,jo,2,149,5,3,Stop,Left,333,NoResponse,0,Low
jou-cmand1DR-20201112,jo,2,150,5,4,Stop,Right,483,Right,244,High
jou-cmand1DR-20201112,jo,2,151,5,5,Stop,Right,400,Right,292,High
jou-cmand1DR-20201112,jo,2,152,5,6,Stop,Left,333,NoResponse,0,Low
jou-cmand1DR-20201112,jo,2,153,5,7,Go,Right,0,Right,253,High
jou-cmand1DR-20201112,jo,2,154,5,8,Go,Right,0,Right,271,High
jou-cmand1DR-20201112,jo,2,155,5,9,Stop,Right,483,Right,257,High
jou-cmand1DR-20201112,jo,2,156,5,10,Stop,Left,400,Left,306,Low
jou-cmand1DR-20201112,jo,2,157,5,11,Go,Left,0,Left,398,Low
jou-cmand1DR-20201112,jo,2,158,5,12,Go,Left,0,NoStart,0,Low
jou-cmand1DR-20201112,jo,2,159,5,13,Go,Right,0,NoStart,0,High
jou-cmand1DR-20201112,jo,2,160,5,14,Go,Left,0,NoStart,0,Low
jou-cmand1DR-20201112,jo,2,161,5,15,Go,Right,0,NoStart,0,High
jou-cmand1DR-20201112,jo,2,162,5,16,Go,Right,0,Right,301,High
jou-cmand1DR-20201112,jo,2,163,5,17,Go,Left,0,NoStart,0,Low
jou-cmand1DR-20201112,jo,2,164,5,18,Stop,Right,267,NoStart,0,High
jou-cmand1DR-20201112,jo,2,165,5,19,Go,Left,0,NoStart,0,Low
jou-cmand1DR-20201112,jo,2,166,5,20,Go,Right,0,NoStart,0,High
jou-cmand1DR-20201112,jo,2,167,5,21,Stop,Right,133,NoStart,0,High
jou-cmand1DR-20201112,jo,2,168,5,22,Stop,Left,50,NoStart,0,Low
jou-cmand1DR-20201112,jo,2,169,5,23,Go,Right,0,Right,318,High
jou-cmand1DR-20201112,jo,2,170,5,24,Stop,Right,50,NoResponse,0,High
jou-cmand1DR-20201112,jo,2,171,5,25,Stop,Right,133,NoResponse,0,High
jou-cmand1DR-20201112,jo,2,172,5,26,Go,Left,0,Left,424,Low
jou-cmand1DR-20201112,jo,2,173,5,27,Go,Right,0,NoStart,0,High
jou-cmand1DR-20201112,jo,2,174,5,28,Go,Left,0,NoStart,0,Low
jou-cmand1DR-20201112,jo,2,175,5,29,Go,Left,0,NoStart,0,Low
jou-cmand1DR-20201112,jo,2,176,5,30,Stop,Left,333,NoStart,0,Low
jou-cmand1DR-20201112,jo,2,177,5,31,Stop,Right,483,NoStart,0,High
jou-cmand1DR-20201112,jo,2,178,5,32,Go,Right,0,NoStart,0,High
jou-cmand1DR-20201112,jo,2,179,5,33,Go,Right,0,NoStart,0,High
jou-cmand1DR-20201112,jo,2,180,5,34,Go,Left,0,NoStart,0,Low
jou-cmand1DR-20201112,jo,2,181,5,35,Stop,Left,483,NoStart,0,Low
jou-cmand1DR-20201112,jo,2,182,5,36,Go,Right,0,NoStart,0,High
jou-cmand1DR-20201112,jo,2,183,5,37,Go,Left,0,NoStart,0,Low
jou-cmand1DR-20201112,jo,2,184,5,38,Go,Left,0,NoStart,0,Low
jou-cmand1DR-20201112,jo,2,185,5,39,Go,Left,0,NoStart,0,Low
jou-cmand1DR-20201112,jo,2,186,5,40,Go,Left,0,NoStart,0,Low
jou-cmand1DR-20201112,jo,2,187,5,41,Stop,Right,483,NoStart,0,High
jou-cmand1DR-20201112,jo,2,188,5,42,Go,Left,0,NoStart,0,Low
jou-cmand1DR-20201112,jo,2,189,5,43,Go,Left,0,NoStart,0,Low
jou-cmand1DR-20201112,jo,2,190,5,44,Stop,Left,483,NoStart,0,Low
jou-cmand1DR-20201112,jo,2,191,5,45,Stop,Right,483,NoStart,0,High
jou-cmand1DR-20201112,jo,2,192,5,46,Stop,Right,483,NoStart,0,High
jou-cmand1DR-20201112,jo,2,193,5,47,Go,Right,0,NoStart,0,High
jou-cmand1DR-20201112,jo,2,194,5,48,Stop,Right,483,Right,341,High
jou-cmand1DR-20201112,jo,2,195,5,49,Stop,Right,267,NoResponse,0,High
jou-cmand1DR-20201112,jo,2,196,5,50,Stop,Right,483,Right,326,High
jou-cmand1DR-20201112,jo,2,197,5,51,Go,Right,0,Right,461,High
jou-cmand1DR-20201112,jo,2,198,5,52,Go,Right,0,Right,312,High
jou-cmand1DR-20201112,jo,2,199,5,53,Stop,Left,333,Left,304,Low
jou-cmand1DR-20201112,jo,2,200,5,54,Go,Right,0,NoStart,0,High
jou-cmand1DR-20201112,jo,2,201,5,55,Stop,Right,133,NoStart,0,High
jou-cmand1DR-20201112,jo,2,202,5,56,Go,Right,0,Right,225,High
jou-cmand1DR-20201112,jo,2,203,5,57,Stop,Left,200,NoResponse,0,Low
jou-cmand1DR-20201112,jo,2,204,5,58,Go,Right,0,Right,275,High
jou-cmand1DR-20201112,jo,2,205,6,1,Stop,Left,267,Left,293,High
jou-cmand1DR-20201112,jo,2,206,6,2,Go,Left,0,Left,386,High
jou-cmand1DR-20201112,jo,2,207,6,3,Go,Left,0,Left,274,High
jou-cmand1DR-20201112,jo,2,208,6,4,Go,Right,0,NoStart,0,Low
jou-cmand1DR-20201112,jo,2,209,6,5,Stop,Right,133,NoStart,0,Low
jou-cmand1DR-20201112,jo,2,210,6,6,Go,Right,0,Right,474,Low
jou-cmand1DR-20201112,jo,2,211,6,7,Stop,Right,133,NoResponse,0,Low
jou-cmand1DR-20201112,jo,2,212,6,8,Go,Right,0,Right,337,Low
jou-cmand1DR-20201112,jo,2,213,6,9,Stop,Right,267,Right,291,Low
jou-cmand1DR-20201112,jo,2,214,6,10,Go,Left,0,Left,241,High
jou-cmand1DR-20201112,jo,2,215,6,11,Stop,Right,200,NoStart,0,Low
jou-cmand1DR-20201112,jo,2,216,6,12,Stop,Left,200,NoStart,0,High
jou-cmand1DR-20201112,jo,2,217,6,13,Go,Left,0,Left,268,High
jou-cmand1DR-20201112,jo,2,218,6,14,Stop,Right,200,NoResponse,0,Low
jou-cmand1DR-20201112,jo,2,219,6,15,Go,Left,0,Left,263,High
jou-cmand1DR-20201112,jo,2,220,6,16,Stop,Right,333,Right,254,Low
jou-cmand1DR-20201112,jo,2,221,6,17,Go,Right,0,Right,302,Low
jou-cmand1DR-20201112,jo,2,222,6,18,Go,Right,0,Right,334,Low
jou-cmand1DR-20201112,jo,2,223,6,19,Stop,Right,200,NoStart,0,Low
jou-cmand1DR-20201112,jo,2,224,6,20,Go,Left,0,Left,238,High
jou-cmand1DR-20201112,jo,2,225,6,21,Stop,Left,50,NoResponse,0,High
jou-cmand1DR-20201112,jo,2,226,6,22,Go,Left,0,Left,275,High
jou-cmand1DR-20201112,jo,2,227,6,23,Stop,Right,133,NoResponse,0,Low
jou-cmand1DR-20201112,jo,2,228,6,24,Go,Left,0,Left,300,High
jou-cmand1DR-20201112,jo,2,229,6,25,Stop,Right,333,Right,393,Low
jou-cmand1DR-20201112,jo,2,230,6,26,Go,Right,0,Right,384,Low
jou-cmand1DR-20201112,jo,2,231,6,27,Go,Left,0,Left,285,High
jou-cmand1DR-20201112,jo,2,232,6,28,Go,Right,0,NoStart,0,Low
jou-cmand1DR-20201112,jo,2,233,6,29,Stop,Left,200,NoStart,0,High
jou-cmand1DR-20201112,jo,2,234,6,30,Go,Left,0,Left,272,High
jou-cmand1DR-20201112,jo,2,235,6,31,Go,Right,0,Right,359,Low
jou-cmand1DR-20201112,jo,2,236,6,32,Go,Left,0,Left,302,High
jou-cmand1DR-20201112,jo,2,237,6,33,Stop,Left,200,Left,257,High
jou-cmand1DR-20201112,jo,2,238,6,34,Go,Left,0,Left,228,High
jou-cmand1DR-20201112,jo,2,239,6,35,Stop,Right,50,NoStart,0,Low
jou-cmand1DR-20201112,jo,2,240,6,36,Stop,Right,50,NoStart,0,Low
jou-cmand1DR-20201112,jo,2,241,6,37,Go,Left,0,NoStart,0,High
jou-cmand1DR-20201112,jo,2,242,6,38,Go,Right,0,NoStart,0,Low
jou-cmand1DR-20201112,jo,2,243,6,39,Stop,Left,50,NoStart,0,High
jou-cmand1DR-20201112,jo,2,244,6,40,Go,Right,0,Right,532,Low
jou-cmand1DR-20201112,jo,2,245,6,41,Stop,Left,50,NoResponse,0,High
jou-cmand1DR-20201112,jo,2,246,6,42,Stop,Right,133,NoResponse,0,Low
jou-cmand1DR-20201112,jo,2,247,6,43,Go,Left,0,Left,273,High
jou-cmand1DR-20201112,jo,2,248,6,44,Stop,Left,267,NoStart,0,High
jou-cmand1DR-20201112,jo,2,249,6,45,Stop,Right,333,NoStart,0,Low
jou-cmand1DR-20201112,jo,2,250,6,46,Stop,Left,483,NoStart,0,High
jou-cmand1DR-20201112,jo,2,251,6,47,Go,Right,0,NoStart,0,Low
jou-cmand1DR-20201112,jo,2,252,6,48,Stop,Right,483,NoStart,0,Low
jou-cmand1DR-20201112,jo,2,253,6,49,Go,Right,0,NoStart,0,Low
jou-cmand1DR-20201112,jo,2,254,6,50,Stop,Left,483,NoStart,0,High
jou-cmand1DR-20201112,jo,2,255,6,51,Go,Right,0,NoStart,0,Low
jou-cmand1DR-20201112,jo,2,256,6,52,Go,Left,0,NoStart,0,High
jou-cmand1DR-20201112,jo,2,257,6,53,Stop,Left,483,NoStart,0,High
jou-cmand1DR-20201112,jo,2,258,6,54,Go,Left,0,NoStart,0,High
jou-cmand1DR-20201112,jo,2,259,6,55,Go,Right,0,NoStart,0,Low
jou-cmand1DR-20201112,jo,2,260,6,56,Go,Left,0,NoStart,0,High
jou-cmand1DR-20201112,jo,2,261,6,57,Go,Right,0,NoStart,0,Low
jou-cmand1DR-20201112,jo,2,262,6,58,Stop,Right,483,NoStart,0,Low
jou-cmand1DR-20201112,jo,2,263,6,59,Go,Left,0,NoStart,0,High
jou-cmand1DR-20201112,jo,2,264,6,60,Go,Right,0,NoStart,0,Low
jou-cmand1DR-20201112,jo,2,265,6,61,Go,Right,0,NoStart,0,Low
jou-cmand1DR-20201112,jo,2,266,6,62,Go,Left,0,NoStart,0,High
jou-cmand1DR-20201112,jo,2,267,6,63,Go,Right,0,NoStart,0,Low
jou-cmand1DR-20201112,jo,2,268,6,64,Stop,Right,483,NoStart,0,Low
jou-cmand1DR-20201112,jo,2,269,6,65,Go,Left,0,NoStart,0,High
jou-cmand1DR-20201112,jo,2,270,6,66,Stop,Left,483,NoStart,0,High
jou-cmand1DR-20201112,jo,2,271,6,67,Stop,Left,483,NoStart,0,High
jou-cmand1DR-20201112,jo,2,272,6,68,Go,Right,0,NoStart,0,Low
jou-cmand1DR-20201112,jo,2,273,6,69,Go,Left,0,NoStart,0,High
jou-cmand1DR-20201112,jo,2,274,6,70,Go,Left,0,NoStart,0,High
jou-cmand1DR-20201112,jo,2,275,6,71,Go,Left,0,NoStart,0,High
jou-cmand1DR-20201112,jo,2,276,6,72,Stop,Left,483,NoStart,0,High
jou-cmand1DR-20201112,jo,2,277,6,73,Go,Right,0,NoStart,0,Low
jou-cmand1DR-20201112,jo,2,278,6,74,Go,Right,0,NoStart,0,Low
jou-cmand1DR-20201112,jo,2,279,6,75,Stop,Right,483,NoStart,0,Low
jou-cmand1DR-20201112,jo,2,280,6,76,Stop,Right,483,NoStart,0,Low
jou-cmand1DR-20201112,jo,2,281,6,77,Go,Left,0,NoStart,0,High
jou-cmand1DR-20201112,jo,2,282,6,78,Stop,Left,483,NoStart,0,High
jou-cmand1DR-20201112,jo,2,283,6,79,Go,Right,0,NoStart,0,Low
jou-cmand1DR-20201112,jo,2,284,6,80,Stop,Left,483,NoStart,0,High
jou-cmand1DR-20201112,jo,2,285,6,81,Go,Right,0,NoStart,0,Low
jou-cmand1DR-20201112,jo,2,286,6,82,Go,Right,0,NoStart,0,Low
jou-cmand1DR-20201112,jo,2,287,6,83,Go,Left,0,NoStart,0,High
jou-cmand1DR-20201112,jo,2,288,6,84,Go,Left,0,NoStart,0,High
jou-cmand1DR-20201112,jo,2,289,6,85,Stop,Right,483,NoStart,0,Low
jou-cmand1DR-20201112,jo,2,290,6,86,Go,Left,0,NoStart,0,High
jou-cmand1DR-20201112,jo,2,291,6,87,Go,Right,0,NoStart,0,Low
jou-cmand1DR-20201112,jo,2,292,6,88,Go,Right,0,NoStart,0,Low
jou-cmand1DR-20201112,jo,2,293,6,89,Go,Right,0,NoStart,0,Low
jou-cmand1DR-20201112,jo,2,294,6,90,Go,Right,0,NoStart,0,Low
jou-cmand1DR-20201112,jo,2,295,6,91,Go,Left,0,NoStart,0,High
jou-cmand1DR-20201112,jo,2,296,6,92,Stop,Right,483,NoStart,0,Low
jou-cmand1DR-20201112,jo,2,297,6,93,Stop,Right,483,NoStart,0,Low
jou-cmand1DR-20201112,jo,2,298,6,94,Go,Left,0,NoStart,0,High
jou-cmand1DR-20201112,jo,2,299,6,95,Go,Left,0,NoStart,0,High
jou-cmand1DR-20201112,jo,2,300,6,96,Go,Right,0,NoStart,0,Low
jou-cmand1DR-20201112,jo,2,301,6,97,Stop,Right,483,NoStart,0,Low
jou-cmand1DR-20201112,jo,2,302,6,98,Go,Right,0,NoStart,0,Low
jou-cmand1DR-20201112,jo,2,303,6,99,Go,Left,0,NoStart,0,High
jou-cmand1DR-20201112,jo,2,304,6,100,Go,Left,0,NoStart,0,High
jou-cmand1DR-20201112,jo,2,305,6,101,Go,Left,0,NoStart,0,High
jou-cmand1DR-20201112,jo,2,306,6,102,Go,Left,0,NoStart,0,High
jou-cmand1DR-20201112,jo,2,307,6,103,Stop,Right,483,NoStart,0,Low
jou-cmand1DR-20201112,jo,2,308,6,104,Stop,Left,483,NoStart,0,High
jou-cmand1DR-20201112,jo,2,309,6,105,Go,Right,0,NoStart,0,Low
jou-cmand1DR-20201112,jo,2,310,6,106,Go,Right,0,NoStart,0,Low
jou-cmand1DR-20201112,jo,2,311,6,107,Stop,Left,483,NoStart,0,High
jou-cmand1DR-20201112,jo,2,312,6,108,Stop,Right,483,NoStart,0,Low
jou-cmand1DR-20201112,jo,2,313,6,109,Go,Left,0,NoStart,0,High
jou-cmand1DR-20201112,jo,2,314,6,110,Go,Right,0,NoStart,0,Low
jou-cmand1DR-20201112,jo,2,315,6,111,Stop,Right,483,NoStart,0,Low
jou-cmand1DR-20201112,jo,2,316,6,112,Stop,Right,483,NoStart,0,Low
jou-cmand1DR-20201112,jo,2,317,6,113,Stop,Right,483,NoStart,0,Low
jou-cmand1DR-20201112,jo,2,318,6,114,Go,Right,0,NoStart,0,Low
jou-cmand1DR-20201112,jo,2,319,6,115,Stop,Left,483,NoStart,0,High
jou-cmand1DR-20201112,jo,2,320,6,116,Go,Left,0,NoStart,0,High
jou-cmand1DR-20201112,jo,2,321,6,117,Go,Right,0,NoStart,0,Low
jou-cmand1DR-20201112,jo,2,322,6,118,Stop,Right,483,NoStart,0,Low
jou-cmand1DR-20201112,jo,2,323,6,119,Stop,Right,483,NoStart,0,Low
jou-cmand1DR-20201112,jo,2,324,6,120,Stop,Left,483,NoStart,0,High
jou-cmand1DR-20201112,jo,2,325,6,121,Go,Right,0,NoStart,0,Low
jou-cmand1DR-20201112,jo,2,326,6,122,Go,Right,0,NoStart,0,Low
jou-cmand1DR-20201112,jo,2,327,6,123,Go,Right,0,NoStart,0,Low
jou-cmand1DR-20201112,jo,2,328,6,124,Go,Right,0,NoStart,0,Low
jou-cmand1DR-20201112,jo,2,329,6,125,Go,Right,0,NoStart,0,Low
jou-cmand1DR-20201112,jo,2,330,6,126,Stop,Left,483,NoStart,0,High
jou-cmand1DR-20201112,jo,2,331,6,127,Go,Right,0,NoStart,0,Low
jou-cmand1DR-20201112,jo,2,332,6,128,Stop,Right,483,NoStart,0,Low
jou-cmand1DR-20201112,jo,2,333,6,129,Stop,Left,483,NoStart,0,High
jou-cmand1DR-20201112,jo,2,334,6,130,Stop,Right,483,NoStart,0,Low
jou-cmand1DR-20201112,jo,2,335,6,131,Go,Right,0,NoStart,0,Low
jou-cmand1DR-20201112,jo,2,336,6,132,Go,Left,0,NoStart,0,High
jou-cmand1DR-20201112,jo,2,337,6,133,Stop,Left,483,NoStart,0,High
jou-cmand1DR-20201112,jo,2,338,6,134,Stop,Left,483,NoStart,0,High
jou-cmand1DR-20201112,jo,2,339,6,135,Go,Left,0,NoStart,0,High
jou-cmand1DR-20201112,jo,2,340,6,136,Go,Left,0,NoStart,0,High
jou-cmand1DR-20201112,jo,2,341,6,137,Go,Left,0,NoStart,0,High
jou-cmand1DR-20201112,jo,2,342,6,138,Go,Right,0,NoStart,0,Low
jou-cmand1DR-20201112,jo,2,343,6,139,Go,Right,0,NoStart,0,Low
jou-cmand1DR-20201112,jo,2,344,6,140,Go,Left,0,NoStart,0,High
jou-cmand1DR-20201112,jo,2,345,6,141,Stop,Left,483,NoStart,0,High
jou-cmand1DR-20201112,jo,2,346,6,142,Go,Right,0,NoStart,0,Low
jou-cmand1DR-20201112,jo,2,347,6,143,Go,Right,0,NoStart,0,Low
jou-cmand1DR-20201112,jo,2,348,6,144,Stop,Right,483,NoStart,0,Low
jou-cmand1DR-20201112,jo,2,349,6,145,Stop,Left,483,Left,388,High
jou-cmand1DR-20201112,jo,2,350,6,146,Go,Right,0,NoStart,0,Low
jou-cmand1DR-20201112,jo,2,351,6,147,Stop,Right,333,NoStart,0,Low
jou-cmand1DR-20201112,jo,2,352,6,148,Go,Right,0,NoStart,0,Low
jou-cmand1DR-20201112,jo,2,353,6,149,Go,Left,0,NoStart,0,High
jou-cmand1DR-20201112,jo,2,354,6,150,Go,Left,0,NoStart,0,High
jou-cmand1DR-20201112,jo,2,355,6,151,Stop,Right,200,NoStart,0,Low
jou-cmand1DR-20201112,jo,2,356,6,152,Go,Left,0,NoStart,0,High
jou-cmand1DR-20201112,jo,2,357,6,153,Stop,Right,50,NoStart,0,Low
jou-cmand1DR-20201112,jo,2,358,6,154,Go,Right,0,NoStart,0,Low
jou-cmand1DR-20201112,jo,2,359,6,155,Go,Left,0,NoStart,0,High
jou-cmand1DR-20201112,jo,2,360,6,156,Stop,Right,50,NoStart,0,Low
jou-cmand1DR-20201112,jo,2,361,6,157,Go,Left,0,NoStart,0,High
jou-cmand1DR-20201112,jo,2,362,6,158,Go,Left,0,NoStart,0,High
jou-cmand1DR-20201112,jo,2,363,6,159,Go,Left,0,Left,318,High
jou-cmand1DR-20201112,jo,2,364,6,160,Go,Left,0,Left,236,High
jou-cmand1DR-20201112,jo,2,365,6,161,Go,Right,0,Right,285,Low
jou-cmand1DR-20201112,jo,2,366,6,162,Go,Left,0,Left,247,High
jou-cmand1DR-20201112,jo,2,367,6,163,Stop,Right,50,NoResponse,0,Low
jou-cmand1DR-20201112,jo,2,368,7,1,Stop,Left,267,NoStart,0,Low
jou-cmand1DR-20201112,jo,2,369,7,2,Go,Left,0,Left,230,Low
jou-cmand1DR-20201112,jo,2,370,7,3,Stop,Right,483,Right,393,High
jou-cmand1DR-20201112,jo,2,371,7,4,Go,Left,0,Left,345,Low
jou-cmand1DR-20201112,jo,2,372,7,5,Stop,Right,400,Right,306,High
jou-cmand1DR-20201112,jo,2,373,7,6,Stop,Right,267,Right,318,High
jou-cmand1DR-20201112,jo,2,374,7,7,Stop,Left,50,NoResponse,0,Low
jou-cmand1DR-20201112,jo,2,375,7,8,Stop,Left,133,NoStart,0,Low
jou-cmand1DR-20201112,jo,2,376,7,9,Go,Right,0,Right,272,High
jou-cmand1DR-20201112,jo,2,377,7,10,Go,Right,0,Right,272,High
jou-cmand1DR-20201112,jo,2,378,7,11,Stop,Right,133,NoStart,0,High
jou-cmand1DR-20201112,jo,2,379,7,12,Go,Right,0,Right,259,High
jou-cmand1DR-20201112,jo,2,380,7,13,Stop,Left,133,NoResponse,0,Low
jou-cmand1DR-20201112,jo,2,381,7,14,Go,Left,0,Left,264,Low
jou-cmand1DR-20201112,jo,2,382,7,15,Go,Right,0,Right,290,High
jou-cmand1DR-20201112,jo,2,383,7,16,Stop,Left,267,NoResponse,0,Low
jou-cmand1DR-20201112,jo,2,384,7,17,Stop,Left,483,NoStart,0,Low
jou-cmand1DR-20201112,jo,2,385,7,18,Go,Left,0,Left,346,Low
jou-cmand1DR-20201112,jo,2,386,7,19,Go,Left,0,Left,411,Low
jou-cmand1DR-20201112,jo,2,387,7,20,Go,Right,0,Right,274,High
jou-cmand1DR-20201112,jo,2,388,7,21,Stop,Left,483,Left,339,Low
jou-cmand1DR-20201112,jo,2,389,7,22,Go,Right,0,Right,319,High
jou-cmand1DR-20201112,jo,2,390,7,23,Stop,Right,400,Right,259,High
jou-cmand1DR-20201112,jo,2,391,7,24,Go,Left,0,Left,458,Low
jou-cmand1DR-20201112,jo,2,392,7,25,Stop,Right,333,Right,253,High
jou-cmand1DR-20201112,jo,2,393,7,26,Stop,Right,200,Right,250,High
jou-cmand1DR-20201112,jo,2,394,7,27,Go,Right,0,Right,330,High
jou-cmand1DR-20201112,jo,2,395,7,28,Go,Left,0,Left,318,Low
jou-cmand1DR-20201112,jo,2,396,7,29,Go,Left,0,NoStart,0,Low
jou-cmand1DR-20201112,jo,2,397,7,30,Stop,Right,133,NoResponse,0,High
jou-cmand1DR-20201112,jo,2,398,7,31,Go,Right,0,Right,315,High
jou-cmand1DR-20201112,jo,2,399,7,32,Go,Left,0,NoStart,0,Low
jou-cmand1DR-20201112,jo,2,400,7,33,Go,Left,0,NoStart,0,Low
jou-cmand1DR-20201112,jo,2,401,7,34,Go,Left,0,Left,387,Low
jou-cmand1DR-20201112,jo,2,402,7,35,Go,Right,0,Right,264,High
jou-cmand1DR-20201112,jo,2,403,7,36,Stop,Right,333,Right,287,High
jou-cmand1DR-20201112,jo,2,404,7,37,Go,Right,0,Right,301,High
jou-cmand1DR-20201112,jo,2,405,7,38,Go,Left,0,NoStart,0,Low
jou-cmand1DR-20201112,jo,2,406,7,39,Stop,Right,133,NoStart,0,High
jou-cmand1DR-20201112,jo,2,407,7,40,Stop,Right,50,NoResponse,0,High
jou-cmand1DR-20201112,jo,2,408,7,41,Stop,Left,133,NoResponse,0,Low
jou-cmand1DR-20201112,jo,2,409,7,42,Go,Right,0,Right,269,High
jou-cmand1DR-20201112,jo,2,410,7,43,Go,Right,0,Right,357,High
jou-cmand1DR-20201112,jo,2,411,7,44,Go,Left,0,Left,320,Low
jou-cmand1DR-20201112,jo,2,412,7,45,Go,Right,0,Right,287,High
jou-cmand1DR-20201112,jo,2,413,8,1,Stop,Right,200,NoResponse,0,Low
jou-cmand1DR-20201112,jo,2,414,8,2,Stop,Right,400,NoResponse,0,Low
jou-cmand1DR-20201112,jo,2,415,8,3,Go,Right,0,NoStart,0,Low
jou-cmand1DR-20201112,jo,2,416,8,4,Stop,Right,483,Right,471,Low
jou-cmand1DR-20201112,jo,2,417,8,5,Go,Right,0,Right,277,Low
jou-cmand1DR-20201112,jo,2,418,8,6,Go,Left,0,Left,246,High
jou-cmand1DR-20201112,jo,2,419,8,7,Go,Left,0,Left,226,High
jou-cmand1DR-20201112,jo,2,420,8,8,Stop,Left,400,Left,284,High
jou-cmand1DR-20201112,jo,2,421,8,9,Go,Right,0,Right,392,Low
jou-cmand1DR-20201112,jo,2,422,8,10,Go,Left,0,Left,268,High
jou-cmand1DR-20201112,jo,2,423,8,11,Go,Left,0,Left,246,High
jou-cmand1DR-20201112,jo,2,424,8,12,Go,Right,0,Right,517,Low
jou-cmand1DR-20201112,jo,2,425,8,13,Go,Left,0,NoStart,0,High
jou-cmand1DR-20201112,jo,2,426,8,14,Go,Left,0,NoStart,0,High
jou-cmand1DR-20201112,jo,2,427,8,15,Go,Right,0,NoStart,0,Low
jou-cmand1DR-20201112,jo,2,428,8,16,Stop,Left,483,NoStart,0,High
jou-cmand1DR-20201112,jo,2,429,8,17,Stop,Left,200,Left,212,High
jou-cmand1DR-20201112,jo,2,430,8,18,Stop,Right,50,NoStart,0,Low
jou-cmand1DR-20201112,jo,2,431,8,19,Stop,Left,50,NoStart,0,High
jou-cmand1DR-20201112,jo,2,432,8,20,Go,Left,0,NoStart,0,High
jou-cmand1DR-20201112,jo,2,433,8,21,Go,Right,0,NoStart,0,Low
jou-cmand1DR-20201112,jo,2,434,8,22,Go,Left,0,NoStart,0,High
jou-cmand1DR-20201112,jo,2,435,8,23,Go,Right,0,NoStart,0,Low
jou-cmand1DR-20201112,jo,2,436,8,24,Go,Left,0,Left,242,High
jou-cmand1DR-20201112,jo,2,437,8,25,Go,Right,0,NoStart,0,Low
jou-cmand1DR-20201112,jo,2,438,8,26,Go,Left,0,Left,266,High
jou-cmand1DR-20201112,jo,2,439,8,27,Go,Right,0,Right,426,Low
jou-cmand1DR-20201112,jo,2,440,8,28,Go,Right,0,NoStart,0,Low
jou-cmand1DR-20201112,jo,2,441,8,29,Stop,Right,50,NoStart,0,Low
jou-cmand1DR-20201112,jo,2,442,8,30,Stop,Left,50,NoStart,0,High
jou-cmand1DR-20201112,jo,2,443,8,31,Go,Right,0,NoStart,0,Low
jou-cmand1DR-20201112,jo,2,444,8,32,Go,Right,0,NoStart,0,Low
jou-cmand1DR-20201112,jo,2,445,8,33,Stop,Right,50,NoStart,0,Low
jou-cmand1DR-20201112,jo,2,446,8,34,Go,Right,0,NoStart,0,Low
jou-cmand1DR-20201112,jo,2,447,8,35,Go,Left,0,Left,244,High
jou-cmand1DR-20201112,jo,2,448,9,1,Go,Right,0,NoStart,0,High
jou-cmand1DR-20201112,jo,2,449,9,2,Go,Right,0,NoStart,0,High
jou-cmand1DR-20201112,jo,2,450,9,3,Go,Right,0,NoStart,0,High
jou-cmand1DR-20201112,jo,2,451,9,4,Stop,Left,50,NoStart,0,Low
jou-cmand1DR-20201112,jo,2,452,9,5,Stop,Left,50,NoResponse,0,Low
jou-cmand1DR-20201112,jo,2,453,9,6,Stop,Right,267,NoStart,0,High
jou-cmand1DR-20201112,jo,2,454,9,7,Stop,Right,483,Right,285,High
jou-cmand1DR-20201112,jo,2,455,9,8,Go,Left,0,NoStart,0,Low
jou-cmand1DR-20201112,jo,2,456,9,9,Go,Right,0,NoStart,0,High
jou-cmand1DR-20201112,jo,2,457,9,10,Stop,Right,267,NoStart,0,High
jou-cmand1DR-20201112,jo,2,458,9,11,Go,Right,0,NoStart,0,High
jou-cmand1DR-20201112,jo,2,459,9,12,Stop,Right,133,NoStart,0,High
jou-cmand1DR-20201112,jo,2,460,9,13,Go,Right,0,NoStart,0,High
jou-cmand1DR-20201112,jo,2,461,9,14,Go,Left,0,NoStart,0,Low
jou-cmand1DR-20201112,jo,2,462,9,15,Go,Left,0,NoStart,0,Low
jou-cmand1DR-20201112,jo,2,463,9,16,Stop,Right,50,NoStart,0,High
jou-cmand1DR-20201112,jo,2,464,9,17,Stop,Left,50,NoStart,0,Low
jou-cmand1DR-20201112,jo,2,465,9,18,Stop,Right,50,NoStart,0,High
jou-cmand1DR-20201112,jo,2,466,9,19,Stop,Left,50,NoResponse,0,Low
jou-cmand1DR-20201112,jo,2,467,9,20,Stop,Right,200,NoResponse,0,High
jou-cmand1DR-20201112,jo,2,468,9,21,Go,Left,0,Left,380,Low
jou-cmand1DR-20201112,jo,2,469,9,22,Go,Left,0,Left,489,Low
jou-cmand1DR-20201112,jo,2,470,9,23,Go,Right,0,NoStart,0,High
jou-cmand1DR-20201112,jo,2,471,9,24,Go,Right,0,Right,613,High
jou-cmand1DR-20201112,jo,2,472,9,25,Go,Right,0,Right,236,High
jou-cmand1DR-20201112,jo,2,473,9,26,Go,Right,0,Right,246,High
jou-cmand1DR-20201112,jo,2,474,9,27,Stop,Left,267,NoResponse,0,Low
jou-cmand1DR-20201112,jo,2,475,9,28,Go,Right,0,Right,249,High
jou-cmand1DR-20201112,jo,2,476,9,29,Stop,Left,483,Left,377,Low
jou-cmand1DR-20201112,jo,2,477,9,30,Stop,Right,333,Right,276,High
jou-cmand1DR-20201112,jo,2,478,9,31,Go,Left,0,Left,387,Low
jou-cmand1DR-20201112,jo,2,479,9,32,Stop,Right,200,Right,260,High
jou-cmand1DR-20201112,jo,2,480,9,33,Go,Left,0,NoStart,0,Low
jou-cmand1DR-20201112,jo,2,481,9,34,Go,Left,0,Left,492,Low
jou-cmand1DR-20201112,jo,2,482,9,35,Stop,Left,400,Left,279,Low
jou-cmand1DR-20201112,jo,2,483,9,36,Go,Left,0,NoStart,0,Low
jou-cmand1DR-20201112,jo,2,484,9,37,Go,Left,0,NoStart,0,Low
jou-cmand1DR-20201112,jo,2,485,9,38,Stop,Left,200,NoResponse,0,Low
jou-cmand1DR-20201112,jo,2,486,9,39,Go,Right,0,Right,278,High
jou-cmand1DR-20201112,jo,2,487,9,40,Stop,Right,333,Right,227,High
jou-cmand1DR-20201112,jo,2,488,9,41,Go,Right,0,Right,292,High
jou-cmand1DR-20201112,jo,2,489,9,42,Go,Left,0,NoStart,0,Low
jou-cmand1DR-20201112,jo,2,490,9,43,Go,Left,0,NoStart,0,Low
jou-cmand1DR-20201112,jo,2,491,9,44,Stop,Right,333,NoStart,0,High
jou-cmand1DR-20201112,jo,2,492,9,45,Go,Right,0,NoStart,0,High
jou-cmand1DR-20201112,jo,2,493,9,46,Go,Left,0,NoStart,0,Low
jou-cmand1DR-20201112,jo,2,494,9,47,Go,Left,0,NoStart,0,Low
jou-cmand1DR-20201112,jo,2,495,9,48,Stop,Left,333,NoStart,0,Low
jou-cmand1DR-20201112,jo,2,496,9,49,Go,Right,0,NoStart,0,High
jou-cmand1DR-20201112,jo,2,497,9,50,Stop,Left,267,NoStart,0,Low
jou-cmand1DR-20201112,jo,2,498,9,51,Go,Left,0,NoStart,0,Low
jou-cmand1DR-20201112,jo,2,499,9,52,Stop,Left,200,NoStart,0,Low
jou-cmand1DR-20201112,jo,2,500,9,53,Go,Right,0,Right,268,High
jou-cmand1DR-20201112,jo,2,501,9,54,Go,Right,0,Right,290,High
jou-cmand1DR-20201112,jo,2,502,9,55,Go,Right,0,Right,265,High
jou-cmand1DR-20201112,jo,2,503,9,56,Stop,Left,133,NoStart,0,Low
jou-cmand1DR-20201112,jo,2,504,9,57,Go,Left,0,NoStart,0,Low
jou-cmand1DR-20201112,jo,2,505,9,58,Stop,Right,333,NoStart,0,High
jou-cmand1DR-20201112,jo,2,506,9,59,Go,Left,0,NoStart,0,Low
jou-cmand1DR-20201112,jo,2,507,9,60,Go,Left,0,NoStart,0,Low
jou-cmand1DR-20201112,jo,2,508,9,61,Stop,Right,333,NoStart,0,High
jou-cmand1DR-20201112,jo,2,509,9,62,Go,Left,0,NoStart,0,Low
jou-cmand1DR-20201112,jo,2,510,9,63,Go,Left,0,NoStart,0,Low
jou-cmand1DR-20201112,jo,2,511,9,64,Go,Left,0,NoStart,0,Low
jou-cmand1DR-20201112,jo,2,512,9,65,Go,Right,0,NoStart,0,High
jou-cmand1DR-20201112,jo,2,513,9,66,Go,Left,0,NoStart,0,Low
jou-cmand1DR-20201112,jo,2,514,9,67,Stop,Right,50,NoStart,0,High
jou-cmand1DR-20201112,jo,2,515,9,68,Go,Right,0,NoStart,0,High
jou-cmand1DR-20201112,jo,2,516,9,69,Go,Left,0,NoStart,0,Low
jou-cmand1DR-20201112,jo,2,517,9,70,Go,Left,0,NoStart,0,Low
jou-cmand1DR-20201112,jo,2,518,9,71,Stop,Left,400,NoStart,0,Low
jou-cmand1DR-20201112,jo,2,519,9,72,Go,Right,0,NoStart,0,High
jou-cmand1DR-20201112,jo,2,520,9,73,Go,Left,0,NoStart,0,Low
jou-cmand1DR-20201112,jo,2,521,9,74,Go,Right,0,NoStart,0,High
jou-cmand1DR-20201112,jo,2,522,9,75,Stop,Left,400,NoStart,0,Low
jou-cmand1DR-20201112,jo,2,523,9,76,Go,Right,0,NoStart,0,High
jou-cmand1DR-20201112,jo,2,524,9,77,Go,Right,0,NoStart,0,High
jou-cmand1DR-20201112,jo,2,525,9,78,Go,Right,0,NoStart,0,High
jou-cmand1DR-20201112,jo,2,526,9,79,Stop,Right,400,NoStart,0,High
jou-cmand1DR-20201112,jo,2,527,9,80,Go,Left,0,NoStart,0,Low
jou-cmand1DR-20201112,jo,2,528,9,81,Stop,Right,333,NoStart,0,High
jou-cmand1DR-20201112,jo,2,529,9,82,Go,Right,0,NoStart,0,High
jou-cmand1DR-20201112,jo,2,530,9,83,Go,Right,0,NoStart,0,High
jou-cmand1DR-20201112,jo,2,531,9,84,Stop,Left,333,NoStart,0,Low
jou-cmand1DR-20201112,jo,2,532,9,85,Stop,Left,333,NoStart,0,Low
jou-cmand1DR-20201112,jo,2,533,9,86,Stop,Right,333,NoStart,0,High
jou-cmand1DR-20201112,jo,2,534,9,87,Go,Right,0,NoStart,0,High
jou-cmand1DR-20201112,jo,2,535,9,88,Go,Left,0,NoStart,0,Low
jou-cmand1DR-20201112,jo,2,536,9,89,Go,Right,0,NoStart,0,High
jou-cmand1DR-20201112,jo,2,537,9,90,Go,Right,0,NoStart,0,High
jou-cmand1DR-20201112,jo,2,538,9,91,Go,Left,0,NoStart,0,Low
jou-cmand1DR-20201112,jo,2,539,9,92,Stop,Right,267,NoStart,0,High
jou-cmand1DR-20201112,jo,2,540,9,93,Go,Left,0,NoStart,0,Low
jou-cmand1DR-20201112,jo,2,541,9,94,Go,Right,0,NoStart,0,High
jou-cmand1DR-20201112,jo,2,542,9,95,Go,Right,0,NoStart,0,High
jou-cmand1DR-20201112,jo,2,543,9,96,Go,Right,0,NoStart,0,High
jou-cmand1DR-20201112,jo,2,544,9,97,Go,Left,0,NoStart,0,Low
jou-cmand1DR-20201112,jo,2,545,9,98,Go,Right,0,NoStart,0,High
jou-cmand1DR-20201112,jo,2,546,9,99,Stop,Right,483,NoStart,0,High
jou-cmand1DR-20201112,jo,2,547,9,100,Stop,Right,200,NoStart,0,High
jou-cmand1DR-20201112,jo,2,548,9,101,Go,Right,0,NoStart,0,High
jou-cmand1DR-20201112,jo,2,549,9,102,Go,Right,0,NoStart,0,High
jou-cmand1DR-20201112,jo,2,550,9,103,Stop,Left,483,NoStart,0,Low
jou-cmand1DR-20201112,jo,2,551,9,104,Go,Left,0,NoStart,0,Low
jou-cmand1DR-20201112,jo,2,552,9,105,Go,Left,0,NoStart,0,Low
jou-cmand1DR-20201112,jo,2,553,9,106,Stop,Left,267,NoStart,0,Low
jou-cmand1DR-20201112,jo,2,554,9,107,Go,Left,0,NoStart,0,Low
jou-cmand1DR-20201112,jo,2,555,9,108,Go,Left,0,NoStart,0,Low
jou-cmand1DR-20201112,jo,2,556,9,109,Go,Right,0,NoStart,0,High
jou-cmand1DR-20201112,jo,2,557,9,110,Go,Right,0,NoStart,0,High
jou-cmand1DR-20201112,jo,2,558,9,111,Stop,Right,50,NoStart,0,High
jou-cmand1DR-20201112,jo,2,559,9,112,Go,Right,0,NoStart,0,High
jou-cmand1DR-20201112,jo,2,560,9,113,Go,Right,0,NoStart,0,High
jou-cmand1DR-20201112,jo,2,561,9,114,Stop,Left,133,NoStart,0,Low
jou-cmand1DR-20201112,jo,2,562,9,115,Stop,Left,133,NoStart,0,Low
jou-cmand1DR-20201112,jo,2,563,9,116,Stop,Right,483,NoStart,0,High
jou-cmand1DR-20201112,jo,2,564,9,117,Stop,Right,333,NoStart,0,High
jou-cmand1DR-20201112,jo,2,565,9,118,Go,Right,0,NoStart,0,High
jou-cmand1DR-20201112,jo,2,566,9,119,Stop,Right,400,NoStart,0,High
jou-cmand1DR-20201112,jo,2,567,9,120,Go,Right,0,NoStart,0,High
jou-cmand1DR-20201112,jo,2,568,9,121,Stop,Left,483,NoStart,0,Low
jou-cmand1DR-20201112,jo,2,569,9,122,Go,Right,0,NoStart,0,High
jou-cmand1DR-20201112,jo,2,570,9,123,Go,Left,0,NoStart,0,Low
jou-cmand1DR-20201112,jo,2,571,9,124,Stop,Left,50,NoStart,0,Low
jou-cmand1DR-20201112,jo,2,572,9,125,Stop,Left,133,NoStart,0,Low
jou-cmand1DR-20201112,jo,2,573,9,126,Go,Left,0,NoStart,0,Low
jou-cmand1DR-20201112,jo,2,574,9,127,Stop,Left,133,NoStart,0,Low
jou-cmand1DR-20201112,jo,2,575,9,128,Stop,Right,483,NoStart,0,High
jou-cmand1DR-20201112,jo,2,576,9,129,Go,Right,0,NoStart,0,High
jou-cmand1DR-20201112,jo,2,577,9,130,Go,Right,0,NoStart,0,High
jou-cmand1DR-20201112,jo,2,578,9,131,Stop,Left,400,NoStart,0,Low
jou-cmand1DR-20201112,jo,2,579,9,132,Go,Left,0,NoStart,0,Low
jou-cmand1DR-20201112,jo,2,580,9,133,Go,Left,0,NoStart,0,Low
jou-cmand1DR-20201112,jo,2,581,9,134,Go,Left,0,NoStart,0,Low
jou-cmand1DR-20201112,jo,2,582,9,135,Stop,Right,200,NoStart,0,High
jou-cmand1DR-20201112,jo,2,583,9,136,Go,Right,0,NoStart,0,High
jou-cmand1DR-20201112,jo,2,584,9,137,Go,Left,0,NoStart,0,Low
jou-cmand1DR-20201112,jo,2,585,9,138,Go,Right,0,NoStart,0,High
jou-cmand1DR-20201112,jo,2,586,9,139,Stop,Left,333,NoStart,0,Low
jou-cmand1DR-20201112,jo,2,587,9,140,Go,Right,0,NoStart,0,High
jou-cmand1DR-20201112,jo,2,588,9,141,Go,Left,0,NoStart,0,Low
jou-cmand1DR-20201112,jo,2,589,9,142,Go,Left,0,NoStart,0,Low
jou-cmand1DR-20201112,jo,2,590,9,143,Stop,Left,333,NoStart,0,Low
jou-cmand1DR-20201112,jo,2,591,9,144,Stop,Right,333,NoStart,0,High
jou-cmand1DR-20201112,jo,2,592,9,145,Go,Right,0,NoStart,0,High
jou-cmand1DR-20201112,jo,2,593,9,146,Go,Right,0,NoStart,0,High
jou-cmand1DR-20201112,jo,2,594,9,147,Go,Left,0,NoStart,0,Low
jou-cmand1DR-20201112,jo,2,595,9,148,Go,Right,0,NoStart,0,High
jou-cmand1DR-20201112,jo,2,596,9,149,Go,Left,0,NoStart,0,Low
jou-cmand1DR-20201112,jo,2,597,9,150,Stop,Left,400,NoStart,0,Low
jou-cmand1DR-20201112,jo,2,598,9,151,Go,Right,0,NoStart,0,High
jou-cmand1DR-20201112,jo,2,599,9,152,Stop,Right,333,NoStart,0,High
jou-cmand1DR-20201112,jo,2,600,9,153,Go,Left,0,NoStart,0,Low
jou-cmand1DR-20201112,jo,2,601,9,154,Go,Left,0,NoStart,0,Low
jou-cmand1DR-20201112,jo,2,602,9,155,Go,Right,0,NoStart,0,High
jou-cmand1DR-20201112,jo,2,603,9,156,Go,Right,0,NoStart,0,High
jou-cmand1DR-20201112,jo,2,604,9,157,Stop,Left,200,NoStart,0,Low
jou-cmand1DR-20201112,jo,2,605,9,158,Stop,Left,333,NoStart,0,Low
jou-cmand1DR-20201112,jo,2,606,9,159,Go,Right,0,NoStart,0,High
jou-cmand1DR-20201112,jo,2,607,9,160,Go,Right,0,NoStart,0,High
jou-cmand1DR-20201112,jo,2,608,9,161,Go,Left,0,NoStart,0,Low
jou-cmand1DR-20201112,jo,2,609,9,162,Go,Left,0,Left,261,Low
jou-cmand1DR-20201112,jo,2,610,9,163,Go,Left,0,Left,278,Low
jou-cmand1DR-20201112,jo,2,611,9,164,Stop,Right,200,NoResponse,0,High
jou-cmand1DR-20201112,jo,2,612,9,165,Go,Left,0,Left,342,Low
jou-cmand1DR-20201112,jo,2,613,9,166,Go,Left,0,Left,629,Low
jou-cmand1DR-20201112,jo,2,614,9,167,Stop,Right,267,Right,306,High
jou-cmand1DR-20201112,jo,2,615,9,168,Stop,Right,133,NoResponse,0,High
jou-cmand1DR-20201112,jo,2,616,9,169,Go,Right,0,Right,384,High
jou-cmand1DR-20201112,jo,2,617,9,170,Stop,Left,200,NoResponse,0,Low
jou-cmand1DR-20201112,jo,2,618,9,171,Go,Left,0,Left,658,Low
jou-cmand1DR-20201112,jo,2,619,9,172,Go,Left,0,Left,364,Low
jou-cmand1DR-20201112,jo,2,620,9,173,Stop,Right,333,Right,281,High
jou-cmand1DR-20201112,jo,2,621,9,174,Stop,Left,267,NoResponse,0,Low
jou-cmand1DR-20201112,jo,2,622,9,175,Stop,Right,400,NoStart,0,High
jou-cmand1DR-20201112,jo,2,623,9,176,Go,Right,0,Right,302,High
jou-cmand1DR-20201112,jo,2,624,10,1,Stop,Left,483,NoStart,0,High
jou-cmand1DR-20201112,jo,2,625,10,2,Stop,Right,483,Right,295,Low
jou-cmand1DR-20201112,jo,2,626,10,3,Go,Left,0,NoStart,0,High
jou-cmand1DR-20201112,jo,2,627,10,4,Go,Right,0,NoStart,0,Low
jou-cmand1DR-20201112,jo,2,628,10,5,Go,Left,0,NoStart,0,High
jou-cmand1DR-20201112,jo,2,629,10,6,Stop,Left,267,NoStart,0,High
jou-cmand1DR-20201112,jo,2,630,10,7,Stop,Left,50,NoStart,0,High
jou-cmand1DR-20201112,jo,2,631,10,8,Go,Right,0,NoStart,0,Low
jou-cmand1DR-20201112,jo,2,632,10,9,Stop,Left,50,NoStart,0,High
jou-cmand1DR-20201112,jo,2,633,10,10,Go,Right,0,NoStart,0,Low
jou-cmand1DR-20201112,jo,2,634,10,11,Stop,Right,50,NoStart,0,Low
jou-cmand1DR-20201112,jo,2,635,10,12,Go,Right,0,Right,310,Low
jou-cmand1DR-20201112,jo,2,636,10,13,Go,Left,0,Left,297,High
jou-cmand1DR-20201112,jo,2,637,10,14,Go,Right,0,Right,537,Low
jou-cmand1DR-20201112,jo,2,638,10,15,Stop,Right,50,NoResponse,0,Low
jou-cmand1DR-20201112,jo,2,639,10,16,Go,Left,0,Left,287,High
jou-cmand1DR-20201112,jo,2,640,10,17,Stop,Right,133,NoResponse,0,Low
jou-cmand1DR-20201112,jo,2,641,10,18,Go,Left,0,Left,224,High
jou-cmand1DR-20201112,jo,2,642,10,19,Go,Left,0,Left,257,High
jou-cmand1DR-20201112,jo,2,643,10,20,Go,Left,0,Left,231,High
jou-cmand1DR-20201112,jo,2,644,10,21,Go,Right,0,Right,332,Low
jou-cmand1DR-20201112,jo,2,645,10,22,Stop,Right,200,NoResponse,0,Low
jou-cmand1DR-20201112,jo,2,646,10,23,Go,Right,0,Right,420,Low
jou-cmand1DR-20201112,jo,2,647,10,24,Stop,Left,333,NoStart,0,High
jou-cmand1DR-20201112,jo,2,648,10,25,Stop,Left,483,Left,252,High
jou-cmand1DR-20201112,jo,2,649,10,26,Stop,Left,333,Left,232,High
jou-cmand1DR-20201112,jo,2,650,10,27,Stop,Right,267,Right,319,Low
jou-cmand1DR-20201112,jo,2,651,10,28,Go,Right,0,Right,317,Low
jou-cmand1DR-20201112,jo,2,652,10,29,Go,Right,0,NoStart,0,Low
jou-cmand1DR-20201112,jo,2,653,10,30,Go,Right,0,Right,464,Low
jou-cmand1DR-20201112,jo,2,654,10,31,Go,Right,0,Right,534,Low
jou-cmand1DR-20201112,jo,2,655,10,32,Go,Right,0,Right,296,Low
jou-cmand1DR-20201112,jo,2,656,10,33,Stop,Right,133,NoStart,0,Low
jou-cmand1DR-20201112,jo,2,657,10,34,Stop,Left,400,Left,268,High
jou-cmand1DR-20201112,jo,2,658,10,35,Go,Left,0,Left,252,High
jou-cmand1DR-20201112,jo,2,659,10,36,Stop,Right,267,NoResponse,0,Low
jou-cmand1DR-20201112,jo,2,660,10,37,Go,Left,0,NoStart,0,High
jou-cmand1DR-20201112,jo,2,661,10,38,Go,Left,0,Left,230,High
jou-cmand1DR-20201112,jo,2,662,10,39,Stop,Left,400,Left,257,High
jou-cmand1DR-20201112,jo,2,663,10,40,Go,Right,0,Right,333,Low
jou-cmand1DR-20201112,jo,2,664,10,41,Go,Right,0,Right,296,Low
jou-cmand1DR-20201112,jo,2,665,10,42,Stop,Left,333,Left,232,High
jou-cmand1DR-20201112,jo,2,666,10,43,Go,Left,0,Left,337,High
jou-cmand1DR-20201112,jo,2,667,10,44,Stop,Right,133,NoResponse,0,Low
jou-cmand1DR-20201112,jo,2,668,10,45,Stop,Right,333,Right,329,Low
jou-cmand1DR-20201112,jo,2,669,10,46,Go,Right,0,NoStart,0,Low
jou-cmand1DR-20201112,jo,2,670,10,47,Go,Right,0,NoStart,0,Low
jou-cmand1DR-20201112,jo,2,671,10,48,Go,Right,0,Right,287,Low
jou-cmand1DR-20201112,jo,2,672,11,1,Go,Left,0,Left,260,Low
jou-cmand1DR-20201112,jo,2,673,11,2,Go,Left,0,Left,495,Low
jou-cmand1DR-20201112,jo,2,674,11,3,Go,Right,0,Right,284,High
jou-cmand1DR-20201112,jo,2,675,11,4,Go,Right,0,Right,260,High
jou-cmand1DR-20201112,jo,2,676,11,5,Go,Right,0,Right,277,High
jou-cmand1DR-20201112,jo,2,677,11,6,Stop,Left,267,NoResponse,0,Low
jou-cmand1DR-20201112,jo,2,678,11,7,Stop,Left,483,Left,387,Low
jou-cmand1DR-20201112,jo,2,679,11,8,Go,Right,0,Right,256,High
jou-cmand1DR-20201112,jo,2,680,11,9,Stop,Left,333,NoResponse,0,Low
jou-cmand1DR-20201112,jo,2,681,11,10,Go,Left,0,Left,285,Low
jou-cmand1DR-20201112,jo,2,682,11,11,Go,Left,0,Left,308,Low
jou-cmand1DR-20201112,jo,2,683,11,12,Stop,Right,483,Right,349,High
jou-cmand1DR-20201112,jo,2,684,11,13,Go,Left,0,Left,588,Low
jou-cmand1DR-20201112,jo,2,685,11,14,Go,Left,0,NoStart,0,Low
jou-cmand1DR-20201112,jo,2,686,11,15,Go,Right,0,Right,274,High
jou-cmand1DR-20201112,jo,2,687,11,16,Go,Right,0,Right,262,High
jou-cmand1DR-20201112,jo,2,688,11,17,Go,Left,0,Left,301,Low
jou-cmand1DR-20201112,jo,2,689,11,18,Go,Right,0,Right,250,High
jou-cmand1DR-20201112,jo,2,690,11,19,Go,Right,0,Right,235,High
jou-cmand1DR-20201112,jo,2,691,11,20,Go,Right,0,Right,308,High
jou-cmand1DR-20201112,jo,2,692,11,21,Go,Left,0,Left,384,Low
jou-cmand1DR-20201112,jo,2,693,11,22,Go,Right,0,Right,301,High
jou-cmand1DR-20201112,jo,2,694,11,23,Go,Left,0,Left,371,Low
jou-cmand1DR-20201112,jo,2,695,11,24,Stop,Left,50,NoResponse,0,Low
jou-cmand1DR-20201112,jo,2,696,11,25,Go,Right,0,Right,322,High
jou-cmand1DR-20201112,jo,2,697,11,26,Stop,Right,200,NoStart,0,High
jou-cmand1DR-20201112,jo,2,698,11,27,Stop,Left,200,NoStart,0,Low
jou-cmand1DR-20201112,jo,2,699,11,28,Stop,Right,200,NoStart,0,High
jou-cmand1DR-20201112,jo,2,700,11,29,Go,Left,0,Left,466,Low
jou-cmand1DR-20201112,jo,2,701,11,30,Go,Right,0,NoStart,0,High
jou-cmand1DR-20201112,jo,2,702,11,31,Go,Right,0,Right,331,High
jou-cmand1DR-20201112,jo,2,703,12,1,Go,Right,0,NoStart,0,Low
jou-cmand1DR-20201112,jo,2,704,12,2,Go,Right,0,Right,497,Low
jou-cmand1DR-20201112,jo,2,705,12,3,Go,Left,0,NoStart,0,High
jou-cmand1DR-20201112,jo,2,706,12,4,Stop,Right,200,NoResponse,0,Low
jou-cmand1DR-20201112,jo,2,707,12,5,Go,Right,0,Right,644,Low
jou-cmand1DR-20201112,jo,2,708,12,6,Go,Right,0,NoStart,0,Low
jou-cmand1DR-20201112,jo,2,709,12,7,Go,Left,0,Left,220,High
jou-cmand1DR-20201112,jo,2,710,12,8,Go,Right,0,Right,421,Low
jou-cmand1DR-20201112,jo,2,711,12,9,Go,Right,0,Right,352,Low
jou-cmand1DR-20201112,jo,2,712,12,10,Stop,Right,50,NoResponse,0,Low
jou-cmand1DR-20201112,jo,2,713,12,11,Go,Left,0,Left,251,High
jou-cmand1DR-20201112,jo,2,714,12,12,Go,Right,0,Right,344,Low
jou-cmand1DR-20201112,jo,2,715,12,13,Stop,Left,200,Left,251,High
jou-cmand1DR-20201112,jo,2,716,12,14,Go,Left,0,Left,255,High
jou-cmand1DR-20201112,jo,2,717,12,15,Go,Right,0,Right,507,Low
jou-cmand1DR-20201112,jo,2,718,12,16,Go,Right,0,Right,356,Low
jou-cmand1DR-20201112,jo,2,719,12,17,Stop,Left,50,NoResponse,0,High
jou-cmand1DR-20201112,jo,2,720,12,18,Stop,Right,267,Right,326,Low
jou-cmand1DR-20201112,jo,2,721,12,19,Go,Right,0,Right,353,Low
jou-cmand1DR-20201112,jo,2,722,13,1,Go,Right,0,Right,336,High
jou-cmand1DR-20201112,jo,2,723,13,2,Go,Right,0,Right,460,High
jou-cmand1DR-20201112,jo,2,724,13,3,Stop,Left,50,NoResponse,0,Low
jou-cmand1DR-20201112,jo,2,725,13,4,Stop,Left,267,NoResponse,0,Low
jou-cmand1DR-20201112,jo,2,726,13,5,Stop,Left,333,Left,366,Low
jou-cmand1DR-20201112,jo,2,727,13,6,Go,Left,0,Left,517,Low
jou-cmand1DR-20201112,jo,2,728,13,7,Go,Right,0,Right,403,High
jou-cmand1DR-20201112,jo,2,729,13,8,Go,Right,0,Right,234,High
jou-cmand1DR-20201112,jo,2,730,13,9,Go,Left,0,Left,328,Low
jou-cmand1DR-20201112,jo,2,731,13,10,Stop,Left,133,NoResponse,0,Low
jou-cmand1DR-20201112,jo,2,732,14,1,Go,Left,0,Left,402,High
jou-cmand1DR-20201112,jo,2,733,14,2,Go,Left,0,Left,301,High
jou-cmand1DR-20201112,jo,2,734,14,3,Go,Left,0,NoStart,0,High
jou-cmand1DR-20201112,jo,2,735,14,4,Go,Left,0,NoStart,0,High
jou-cmand1DR-20201112,jo,2,736,14,5,Go,Right,0,NoStart,0,Low
jou-cmand1DR-20201112,jo,2,737,14,6,Stop,Right,333,NoStart,0,Low
jou-cmand1DR-20201112,jo,2,738,14,7,Go,Right,0,NoStart,0,Low
jou-cmand1DR-20201112,jo,2,739,14,8,Go,Right,0,NoStart,0,Low
jou-cmand1DR-20201112,jo,2,740,14,9,Go,Right,0,NoStart,0,Low
jou-cmand1DR-20201112,jo,2,741,14,10,Go,Left,0,NoStart,0,High
jou-cmand1DR-20201112,jo,2,742,14,11,Stop,Left,483,NoStart,0,High
jou-cmand1DR-20201112,jo,2,743,14,12,Stop,Left,483,NoStart,0,High
jou-cmand1DR-20201112,jo,2,744,14,13,Go,Left,0,NoStart,0,High
jou-cmand1DR-20201112,jo,2,745,14,14,Go,Right,0,NoStart,0,Low
jou-cmand1DR-20201112,jo,2,746,14,15,Stop,Left,483,NoStart,0,High
jou-cmand1DR-20201112,jo,2,747,14,16,Go,Left,0,NoStart,0,High
jou-cmand1DR-20201112,jo,2,748,14,17,Go,Left,0,NoStart,0,High
jou-cmand1DR-20201112,jo,2,749,14,18,Go,Right,0,NoStart,0,Low
jou-cmand1DR-20201112,jo,2,750,14,19,Go,Right,0,NoStart,0,Low
jou-cmand1DR-20201112,jo,2,751,14,20,Go,Left,0,NoStart,0,High
jou-cmand1DR-20201112,jo,2,752,14,21,Stop,Right,483,NoStart,0,Low
jou-cmand1DR-20201112,jo,2,753,14,22,Go,Left,0,NoStart,0,High
jou-cmand1DR-20201112,jo,2,754,14,23,Stop,Right,483,NoStart,0,Low
jou-cmand1DR-20201112,jo,2,755,14,24,Go,Left,0,NoStart,0,High
jou-cmand1DR-20201112,jo,2,756,14,25,Go,Right,0,NoStart,0,Low
jou-cmand1DR-20201112,jo,2,757,14,26,Go,Right,0,NoStart,0,Low
jou-cmand1DR-20201112,jo,2,758,14,27,Stop,Right,483,NoStart,0,Low
jou-cmand1DR-20201112,jo,2,759,14,28,Stop,Left,483,NoStart,0,High
jou-cmand1DR-20201112,jo,2,760,14,29,Go,Right,0,NoStart,0,Low
jou-cmand1DR-20201112,jo,2,761,14,30,Go,Right,0,Right,301,Low
jou-cmand1DR-20201112,jo,2,762,14,31,Go,Left,0,NoStart,0,High
jou-cmand1DR-20201112,jo,2,763,14,32,Go,Left,0,NoStart,0,High
jou-cmand1DR-20201112,jo,2,764,14,33,Go,Right,0,Right,212,Low
jou-cmand1DR-20201112,jo,2,765,14,34,Stop,Right,483,NoStart,0,Low
jou-cmand1DR-20201112,jo,2,766,14,35,Go,Left,0,NoStart,0,High
jou-cmand1DR-20201112,jo,2,767,14,36,Go,Right,0,NoStart,0,Low
jou-cmand1DR-20201112,jo,2,768,14,37,Go,Right,0,NoStart,0,Low
jou-cmand1DR-20201112,jo,2,769,14,38,Go,Left,0,NoStart,0,High
jou-cmand1DR-20201112,jo,2,770,14,39,Stop,Left,483,NoStart,0,High
jou-cmand1DR-20201112,jo,2,771,14,40,Go,Left,0,NoStart,0,High
jou-cmand1DR-20201112,jo,2,772,14,41,Go,Right,0,NoStart,0,Low
jou-cmand1DR-20201112,jo,2,773,14,42,Go,Left,0,NoStart,0,High
jou-cmand1DR-20201112,jo,2,774,14,43,Go,Right,0,NoStart,0,Low
jou-cmand1DR-20201112,jo,2,775,14,44,Stop,Right,483,NoStart,0,Low
jou-cmand1DR-20201112,jo,2,776,14,45,Stop,Right,483,NoStart,0,Low
jou-cmand1DR-20201112,jo,2,777,14,46,Go,Left,0,NoStart,0,High
jou-cmand1DR-20201112,jo,2,778,14,47,Go,Right,0,NoStart,0,Low
jou-cmand1DR-20201112,jo,2,779,14,48,Go,Right,0,NoStart,0,Low
jou-cmand1DR-20201112,jo,2,780,14,49,Go,Right,0,NoStart,0,Low
jou-cmand1DR-20201112,jo,2,781,14,50,Go,Right,0,NoStart,0,Low
jou-cmand1DR-20201112,jo,2,782,14,51,Go,Left,0,NoStart,0,High
jou-cmand1DR-20201112,jo,2,783,14,52,Go,Right,0,Right,202,Low
jou-cmand1DR-20201112,jo,2,784,14,53,Go,Left,0,Left,221,High
jou-cmand1DR-20201112,jo,2,785,14,54,Go,Left,0,Left,292,High
jou-cmand1DR-20201112,jo,2,786,14,55,Stop,Left,483,Left,197,High
jou-cmand1DR-20201112,jo,2,787,14,56,Go,Right,0,Right,312,Low
jou-cmand1DR-20201112,jo,2,788,14,57,Go,Left,0,Left,241,High
jou-cmand1DR-20201112,jo,2,789,14,58,Stop,Right,333,Right,272,Low
jou-cmand1DR-20201112,jo,2,790,14,59,Go,Left,0,Left,199,High
jou-cmand1DR-20201112,jo,2,791,14,60,Go,Right,0,Right,503,Low
jou-cmand1DR-20201112,jo,2,792,14,61,Go,Right,0,Right,302,Low
jou-cmand1DR-20201112,jo,2,793,14,62,Go,Right,0,Right,351,Low
jou-cmand1DR-20201112,jo,2,794,14,63,Go,Left,0,Left,230,High
jou-cmand1DR-20201112,jo,2,795,14,64,Go,Left,0,NoStart,0,High
jou-cmand1DR-20201112,jo,2,796,14,65,Go,Right,0,Right,418,Low
jou-cmand1DR-20201112,jo,2,797,14,66,Go,Right,0,Right,344,Low
jou-cmand1DR-20201112,jo,2,798,15,1,Stop,Left,267,Left,235,Low
jou-cmand1DR-20201112,jo,2,799,15,2,Go,Left,0,NoStart,0,Low
jou-cmand1DR-20201112,jo,2,800,15,3,Stop,Left,133,NoStart,0,Low
jou-cmand1DR-20201112,jo,2,801,15,4,Stop,Left,133,NoResponse,0,Low
jou-cmand1DR-20201112,jo,2,802,15,5,Go,Left,0,Left,261,Low
jou-cmand1DR-20201112,jo,2,803,15,6,Go,Left,0,Left,351,Low
jou-cmand1DR-20201112,jo,2,804,15,7,Stop,Left,267,NoResponse,0,Low
jou-cmand1DR-20201112,jo,2,805,15,8,Go,Left,0,Left,468,Low
jou-cmand1DR-20201112,jo,2,806,15,9,Go,Left,0,NoStart,0,Low
jou-cmand1DR-20201112,jo,2,807,15,10,Go,Left,0,NoStart,0,Low
jou-cmand1DR-20201112,jo,2,808,15,11,Go,Right,0,NoStart,0,High
jou-cmand1DR-20201112,jo,2,809,15,12,Stop,Left,483,NoStart,0,Low
jou-cmand1DR-20201112,jo,2,810,15,13,Stop,Right,483,NoStart,0,High
jou-cmand1DR-20201112,jo,2,811,15,14,Go,Right,0,Right,284,High
jou-cmand1DR-20201112,jo,2,812,15,15,Stop,Right,133,NoStart,0,High
jou-cmand1DR-20201112,jo,2,813,15,16,Stop,Right,133,NoResponse,0,High
jou-cmand1DR-20201112,jo,2,814,15,17,Go,Right,0,Right,385,High
jou-cmand1DR-20201112,jo,2,815,15,18,Stop,Right,200,NoResponse,0,High
jou-cmand1DR-20201112,jo,2,816,15,19,Go,Left,0,Left,526,Low
jou-cmand1DR-20201112,jo,2,817,15,20,Stop,Left,333,NoResponse,0,Low
jou-cmand1DR-20201112,jo,2,818,15,21,Stop,Right,483,NoStart,0,High
jou-cmand1DR-20201112,jo,2,819,15,22,Stop,Left,483,NoStart,0,Low
jou-cmand1DR-20201112,jo,2,820,15,23,Stop,Left,483,Left,472,Low
jou-cmand1DR-20201112,jo,2,821,15,24,Go,Left,0,Left,443,Low
jou-cmand1DR-20201112,jo,2,822,15,25,Stop,Right,400,NoStart,0,High
jou-cmand1DR-20201112,jo,2,823,15,26,Go,Right,0,Right,252,High
jou-cmand1DR-20201112,jo,2,824,15,27,Stop,Left,333,NoStart,0,Low
jou-cmand1DR-20201112,jo,2,825,15,28,Stop,Right,267,Right,323,High
jou-cmand1DR-20201112,jo,2,826,15,29,Go,Left,0,Left,267,Low
jou-cmand1DR-20201112,jo,2,827,15,30,Go,Right,0,Right,258,High
jou-cmand1DR-20201112,jo,2,828,15,31,Go,Right,0,Right,295,High
jou-cmand1DR-20201112,jo,2,829,15,32,Stop,Left,50,NoStart,0,Low
jou-cmand1DR-20201112,jo,2,830,15,33,Go,Right,0,Right,285,High
jou-cmand1DR-20201112,jo,2,831,15,34,Go,Left,0,Left,637,Low
jou-cmand1DR-20201112,jo,2,832,15,35,Stop,Left,50,NoResponse,0,Low
jou-cmand1DR-20201112,jo,2,833,15,36,Go,Left,0,Left,301,Low
jou-cmand1DR-20201112,jo,2,834,15,37,Stop,Right,267,Right,266,High
jou-cmand1DR-20201112,jo,2,835,15,38,Go,Left,0,Left,409,Low
jou-cmand1DR-20201112,jo,2,836,15,39,Go,Right,0,Right,263,High
jou-cmand1DR-20201112,jo,2,837,15,40,Go,Right,0,Right,316,High
jou-cmand1DR-20201112,jo,2,838,15,41,Go,Right,0,Right,408,High
jou-cmand1DR-20201112,jo,2,839,15,42,Go,Left,0,Left,383,Low
jou-cmand1DR-20201112,jo,2,840,15,43,Go,Left,0,Left,346,Low
jou-cmand1DR-20201112,jo,2,841,15,44,Go,Right,0,Right,271,High
jou-cmand1DR-20201112,jo,2,842,15,45,Stop,Right,400,Right,277,High
jou-cmand1DR-20201112,jo,2,843,15,46,Go,Left,0,NoStart,0,Low
jou-cmand1DR-20201112,jo,2,844,15,47,Go,Right,0,NoStart,0,High
jou-cmand1DR-20201112,jo,2,845,15,48,Go,Right,0,Right,252,High
jou-cmand1DR-20201112,jo,2,846,15,49,Go,Left,0,NoStart,0,Low
jou-cmand1DR-20201112,jo,2,847,15,50,Stop,Right,200,NoStart,0,High
jou-cmand1DR-20201112,jo,2,848,15,51,Go,Right,0,Right,277,High
jou-cmand1DR-20201112,jo,2,849,15,52,Go,Right,0,Right,323,High
jou-cmand1DR-20201112,jo,2,850,15,53,Stop,Left,200,NoStart,0,Low
jou-cmand1DR-20201112,jo,2,851,15,54,Stop,Left,200,NoResponse,0,Low
jou-cmand1DR-20201112,jo,2,852,16,1,Stop,Left,333,Left,402,High
jou-cmand1DR-20201112,jo,2,853,16,2,Go,Left,0,NoStart,0,High
jou-cmand1DR-20201112,jo,2,854,16,3,Go,Right,0,NoStart,0,Low
jou-cmand1DR-20201112,jo,2,855,16,4,Go,Right,0,NoStart,0,Low
jou-cmand1DR-20201112,jo,2,856,16,5,Go,Right,0,NoStart,0,Low
jou-cmand1DR-20201112,jo,2,857,16,6,Go,Right,0,Right,276,Low
jou-cmand1DR-20201112,jo,2,858,16,7,Go,Left,0,Left,269,High
jou-cmand1DR-20201112,jo,2,859,16,8,Stop,Right,133,NoResponse,0,Low
jou-cmand1DR-20201112,jo,2,860,16,9,Go,Left,0,Left,246,High
jou-cmand1DR-20201112,jo,2,861,16,10,Stop,Left,267,Left,239,High
jou-cmand1DR-20201112,jo,2,862,16,11,Go,Left,0,Left,222,High
jou-cmand1DR-20201112,jo,2,863,16,12,Go,Right,0,Right,369,Low
jou-cmand1DR-20201112,jo,2,864,16,13,Stop,Right,200,NoStart,0,Low
jou-cmand1DR-20201112,jo,2,865,16,14,Stop,Left,50,NoStart,0,High
jou-cmand1DR-20201112,jo,2,866,16,15,Go,Right,0,Right,443,Low
jou-cmand1DR-20201112,jo,2,867,16,16,Go,Left,0,NoStart,0,High
jou-cmand1DR-20201112,jo,2,868,16,17,Stop,Right,50,NoResponse,0,Low
jou-cmand1DR-20201112,jo,2,869,16,18,Go,Left,0,Left,251,High
jou-cmand1DR-20201112,jo,2,870,16,19,Go,Left,0,Left,265,High
jou-cmand1DR-20201112,jo,2,871,16,20,Stop,Right,267,NoResponse,0,Low
jou-cmand1DR-20201112,jo,2,872,16,21,Go,Right,0,Right,418,Low
jou-cmand1DR-20201112,jo,2,873,16,22,Go,Right,0,NoStart,0,Low
jou-cmand1DR-20201112,jo,2,874,16,23,Go,Left,0,NoStart,0,High
jou-cmand1DR-20201112,jo,2,875,16,24,Stop,Right,483,NoResponse,0,Low
jou-cmand1DR-20201112,jo,2,876,16,25,Go,Right,0,Right,347,Low
jou-cmand1DR-20201112,jo,2,877,16,26,Go,Left,0,Left,238,High
jou-cmand1DR-20201112,jo,2,878,16,27,Go,Left,0,Left,233,High
jou-cmand1DR-20201112,jo,2,879,16,28,Go,Left,0,Left,226,High
jou-cmand1DR-20201112,jo,2,880,16,29,Go,Left,0,NoStart,0,High
jou-cmand1DR-20201112,jo,2,881,16,30,Go,Left,0,Left,221,High
jou-cmand1DR-20201112,jo,2,882,16,31,Stop,Left,483,Left,228,High
jou-cmand1DR-20201112,jo,2,883,16,32,Go,Left,0,Left,312,High
jou-cmand1DR-20201112,jo,2,884,16,33,Stop,Left,483,Left,240,High
jou-cmand1DR-20201112,jo,2,885,16,34,Go,Left,0,Left,271,High
jou-cmand1DR-20201112,jo,2,886,16,35,Go,Right,0,Right,506,Low
jou-cmand1DR-20201112,jo,2,887,16,36,Stop,Left,333,NoStart,0,High
jou-cmand1DR-20201112,jo,2,888,16,37,Stop,Right,200,Right,258,Low
jou-cmand1DR-20201112,jo,2,889,16,38,Go,Right,0,Right,306,Low
jou-cmand1DR-20201112,jo,2,890,16,39,Go,Right,0,Right,287,Low
jou-cmand1DR-20201112,jo,2,891,16,40,Go,Left,0,Left,272,High
jou-cmand1DR-20201112,jo,2,892,16,41,Stop,Left,133,NoStart,0,High
jou-cmand1DR-20201112,jo,2,893,16,42,Stop,Right,133,NoStart,0,Low
jou-cmand1DR-20201112,jo,2,894,16,43,Go,Right,0,Right,516,Low
jou-cmand1DR-20201112,jo,2,895,16,44,Go,Left,0,Left,247,High
jou-cmand1DR-20201112,jo,2,896,16,45,Stop,Left,133,NoResponse,0,High
jou-cmand1DR-20201112,jo,2,897,16,46,Go,Right,0,Right,339,Low
jou-cmand1DR-20201112,jo,2,898,16,47,Go,Left,0,Left,281,High
jou-cmand1DR-20201112,jo,2,899,16,48,Stop,Left,200,Left,223,High
jou-cmand1DR-20201112,jo,2,900,16,49,Stop,Right,133,NoStart,0,Low
jou-cmand1DR-20201112,jo,2,901,16,50,Go,Left,0,NoStart,0,High
jou-cmand1DR-20201112,jo,2,902,16,51,Go,Right,0,Right,443,Low
jou-cmand1DR-20201112,jo,2,903,16,52,Go,Left,0,Left,229,High
jou-cmand1DR-20201112,jo,2,904,17,1,Stop,Left,267,Left,234,Low
jou-cmand1DR-20201112,jo,2,905,17,2,Stop,Right,200,NoResponse,0,High
jou-cmand1DR-20201112,jo,2,906,17,3,Go,Left,0,Left,482,Low
jou-cmand1DR-20201112,jo,2,907,17,4,Go,Right,0,Right,446,High
jou-cmand1DR-20201112,jo,2,908,17,5,Go,Left,0,Left,375,Low
jou-cmand1DR-20201112,jo,2,909,17,6,Go,Right,0,Right,234,High
jou-cmand1DR-20201112,jo,2,910,17,7,Go,Left,0,Left,412,Low
jou-cmand1DR-20201112,jo,2,911,17,8,Stop,Right,333,Right,263,High
jou-cmand1DR-20201112,jo,2,912,17,9,Stop,Left,200,NoResponse,0,Low
jou-cmand1DR-20201112,jo,2,913,17,10,Stop,Right,267,Right,303,High
jou-cmand1DR-20201112,jo,2,914,17,11,Stop,Left,200,NoResponse,0,Low
jou-cmand1DR-20201112,jo,2,915,17,12,Go,Left,0,Left,342,Low
jou-cmand1DR-20201112,jo,2,916,17,13,Go,Right,0,Right,222,High
jou-cmand1DR-20201112,jo,2,917,17,14,Stop,Right,400,Right,264,High
jou-cmand1DR-20201112,jo,2,918,17,15,Stop,Right,333,Right,310,High
jou-cmand1DR-20201112,jo,2,919,17,16,Go,Left,0,Left,369,Low
jou-cmand1DR-20201112,jo,2,920,17,17,Stop,Left,200,NoResponse,0,Low
jou-cmand1DR-20201112,jo,2,921,17,18,Stop,Right,333,Right,255,High
jou-cmand1DR-20201112,jo,2,922,17,19,Stop,Right,200,NoResponse,0,High
jou-cmand1DR-20201112,jo,2,923,17,20,Go,Right,0,Right,406,High
jou-cmand1DR-20201112,jo,2,924,18,1,Stop,Left,267,Left,344,High
jou-cmand1DR-20201112,jo,2,925,18,2,Go,Left,0,Left,333,High
jou-cmand1DR-20201112,jo,2,926,18,3,Go,Left,0,Left,240,High
jou-cmand1DR-20201112,jo,2,927,18,4,Stop,Right,200,NoResponse,0,Low
jou-cmand1DR-20201112,jo,2,928,18,5,Stop,Left,400,Left,230,High
jou-cmand1DR-20201112,jo,2,929,18,6,Stop,Right,267,Right,287,Low
jou-cmand1DR-20201112,jo,2,930,18,7,Stop,Right,50,NoStart,0,Low
jou-cmand1DR-20201112,jo,2,931,18,8,Stop,Left,50,NoStart,0,High
jou-cmand1DR-20201112,jo,2,932,18,9,Go,Left,0,NoStart,0,High
jou-cmand1DR-20201112,jo,2,933,18,10,Go,Left,0,Left,224,High
jou-cmand1DR-20201112,jo,2,934,18,11,Go,Right,0,NoStart,0,Low
jou-cmand1DR-20201112,jo,2,935,18,12,Go,Left,0,Left,257,High
jou-cmand1DR-20201112,jo,2,936,18,13,Stop,Left,50,NoStart,0,High
jou-cmand1DR-20201112,jo,2,937,18,14,Go,Left,0,Left,259,High
jou-cmand1DR-20201112,jo,2,938,18,15,Go,Left,0,Left,240,High
jou-cmand1DR-20201112,jo,2,939,18,16,Go,Right,0,Right,442,Low
jou-cmand1DR-20201112,jo,2,940,18,17,Stop,Right,50,NoResponse,0,Low
jou-cmand1DR-20201112,jo,2,941,18,18,Go,Left,0,Left,244,High
jou-cmand1DR-20201112,jo,2,942,18,19,Go,Right,0,Right,370,Low
jou-cmand1DR-20201112,jo,2,943,18,20,Stop,Left,267,Left,248,High
jou-cmand1DR-20201112,jo,2,944,18,21,Go,Right,0,Right,314,Low
jou-cmand1DR-20201112,jo,2,945,18,22,Go,Left,0,Left,252,High
jou-cmand1DR-20201112,jo,2,946,18,23,Go,Right,0,Right,406,Low
jou-cmand1DR-20201112,jo,2,947,18,24,Go,Left,0,Left,247,High
jou-cmand1DR-20201112,jo,2,948,18,25,Go,Left,0,Left,263,High
jou-cmand1DR-20201112,jo,2,949,18,26,Go,Right,0,Right,480,Low
jou-cmand1DR-20201112,jo,2,950,18,27,Go,Left,0,Left,259,High
jou-cmand1DR-20201112,jo,2,951,18,28,Go,Right,0,Right,385,Low
jou-cmand1DR-20201112,jo,2,952,18,29,Go,Right,0,Right,323,Low
jou-cmand1DR-20201112,jo,2,953,18,30,Go,Left,0,Left,253,High
jou-cmand1DR-20201112,jo,2,954,19,1,Stop,Right,200,NoResponse,0,High
jou-cmand1DR-20201112,jo,2,955,19,2,Stop,Left,333,Left,375,Low
jou-cmand1DR-20201112,jo,2,956,19,3,Go,Left,0,Left,295,Low
jou-cmand1DR-20201112,jo,2,957,19,4,Go,Right,0,Right,385,High
jou-cmand1DR-20201112,jo,2,958,19,5,Stop,Right,200,Right,234,High
jou-cmand1DR-20201112,jo,2,959,19,6,Go,Left,0,Left,392,Low
jou-cmand1DR-20201112,jo,2,960,19,7,Stop,Left,50,NoResponse,0,Low
jou-cmand1DR-20201112,jo,2,961,19,8,Go,Left,0,Left,366,Low
jou-cmand1DR-20201112,jo,2,962,19,9,Stop,Right,133,NoStart,0,High
jou-cmand1DR-20201112,jo,2,963,19,10,Go,Right,0,NoStart,0,High
jou-cmand1DR-20201112,jo,2,964,19,11,Go,Left,0,Left,484,Low
jou-cmand1DR-20201112,jo,2,965,19,12,Go,Left,0,Left,568,Low
jou-cmand1DR-20201112,jo,2,966,19,13,Go,Right,0,Right,324,High
jou-cmand1DR-20201112,jo,2,967,19,14,Go,Left,0,Left,383,Low
jou-cmand1DR-20201112,jo,2,968,19,15,Go,Right,0,Right,249,High
jou-cmand1DR-20201112,jo,2,969,19,16,Stop,Right,133,NoStart,0,High
jou-cmand1DR-20201112,jo,2,970,19,17,Go,Right,0,Right,398,High
jou-cmand1DR-20201112,jo,2,971,19,18,Stop,Right,133,NoStart,0,High
jou-cmand1DR-20201112,jo,2,972,19,19,Go,Right,0,NoStart,0,High
jou-cmand1DR-20201112,jo,2,973,19,20,Go,Left,0,NoStart,0,Low
jou-cmand1DR-20201112,jo,2,974,19,21,Stop,Right,333,Right,275,High
jou-cmand1DR-20201112,jo,2,975,19,22,Go,Right,0,Right,310,High
jou-cmand1DR-20201112,jo,2,976,19,23,Stop,Left,400,NoStart,0,Low
jou-cmand1DR-20201112,jo,2,977,19,24,Stop,Left,333,Left,353,Low
jou-cmand1DR-20201112,jo,2,978,19,25,Go,Left,0,Left,386,Low
jou-cmand1DR-20201112,jo,2,979,19,26,Go,Right,0,Right,236,High
jou-cmand1DR-20201112,jo,2,980,19,27,Go,Right,0,Right,332,High
jou-cmand1DR-20201112,jo,2,981,19,28,Stop,Right,200,NoResponse,0,High
jou-cmand1DR-20201112,jo,2,982,19,29,Stop,Left,400,NoResponse,0,Low
jou-cmand1DR-20201112,jo,2,983,19,30,Stop,Right,483,Right,268,High
jou-cmand1DR-20201112,jo,2,984,19,31,Stop,Left,267,Left,314,Low
jou-cmand1DR-20201112,jo,2,985,19,32,Go,Right,0,NoStart,0,High
jou-cmand1DR-20201112,jo,2,986,19,33,Go,Right,0,NoStart,0,High
jou-cmand1DR-20201112,jo,2,987,19,34,Stop,Right,50,NoResponse,0,High
jou-cmand1DR-20201112,jo,2,988,19,35,Go,Right,0,Right,278,High
jou-cmand1DR-20201112,jo,2,989,19,36,Stop,Left,200,NoResponse,0,Low
jou-cmand1DR-20201112,jo,2,990,19,37,Stop,Left,267,Left,325,Low
jou-cmand1DR-20201112,jo,2,991,19,38,Stop,Left,50,NoStart,0,Low
jou-cmand1DR-20201112,jo,2,992,19,39,Stop,Right,50,NoStart,0,High
jou-cmand1DR-20201112,jo,2,993,19,40,Stop,Left,50,NoResponse,0,Low
jou-cmand1DR-20201112,jo,2,994,19,41,Stop,Left,133,NoResponse,0,Low
jou-cmand1DR-20201112,jo,2,995,19,42,Stop,Right,333,Right,277,High
jou-cmand1DR-20201112,jo,2,996,19,43,Stop,Left,200,NoStart,0,Low
jou-cmand1DR-20201112,jo,2,997,19,44,Stop,Right,200,Right,258,High
jou-cmand1DR-20201112,jo,2,998,19,45,Stop,Left,50,NoStart,0,Low
jou-cmand1DR-20201112,jo,2,999,19,46,Go,Left,0,Left,288,Low
jou-cmand1DR-20201112,jo,2,1000,20,1,Go,Right,0,NoStart,0,Low
jou-cmand1DR-20201112,jo,2,1001,20,2,Go,Left,0,NoStart,0,High
jou-cmand1DR-20201112,jo,2,1002,20,3,Stop,Right,50,NoStart,0,Low
jou-cmand1DR-20201112,jo,2,1003,20,4,Go,Left,0,NoStart,0,High
jou-cmand1DR-20201112,jo,2,1004,20,5,Stop,Right,50,NoStart,0,Low
jou-cmand1DR-20201112,jo,2,1005,20,6,Go,Right,0,NoStart,0,Low
jou-cmand1DR-20201112,jo,2,1006,20,7,Go,Right,0,Right,378,Low
jou-cmand1DR-20201112,jo,2,1007,20,8,Go,Right,0,Right,470,Low
jou-cmand1DR-20201112,jo,2,1008,20,9,Go,Right,0,Right,550,Low
jou-cmand1DR-20201112,jo,2,1009,20,10,Stop,Left,50,NoStart,0,High
jou-cmand1DR-20201112,jo,2,1010,20,11,Go,Left,0,NoStart,0,High
jou-cmand1DR-20201112,jo,2,1011,20,12,Go,Left,0,Left,228,High
jou-cmand1DR-20201112,jo,2,1012,20,13,Go,Right,0,NoStart,0,Low
jou-cmand1DR-20201112,jo,2,1013,20,14,Go,Left,0,Left,253,High
jou-cmand1DR-20201112,jo,2,1014,20,15,Stop,Right,50,NoResponse,0,Low
jou-cmand1DR-20201112,jo,2,1015,20,16,Stop,Right,200,NoResponse,0,Low
jou-cmand1DR-20201112,jo,2,1016,20,17,Go,Left,0,Left,279,High
jou-cmand1DR-20201112,jo,2,1017,20,18,Stop,Right,267,NoResponse,0,Low
jou-cmand1DR-20201112,jo,2,1018,20,19,Go,Left,0,Left,250,High
jou-cmand1DR-20201112,jo,2,1019,20,20,Stop,Right,483,Right,331,Low
jou-cmand1DR-20201112,jo,2,1020,20,21,Go,Right,0,Right,318,Low
jou-cmand1DR-20201112,jo,2,1021,20,22,Go,Right,0,Right,549,Low
jou-cmand1DR-20201112,jo,2,1022,20,23,Stop,Left,267,Left,238,High
jou-cmand1DR-20201112,jo,2,1023,20,24,Stop,Right,133,NoResponse,0,Low
jou-cmand1DR-20201112,jo,2,1024,20,25,Go,Left,0,Left,213,High
jou-cmand1DR-20201112,jo,2,1025,20,26,Go,Right,0,Right,289,Low
jou-cmand1DR-20201112,jo,2,1026,20,27,Go,Left,0,Left,251,High
jou-cmand1DR-20201112,jo,2,1027,20,28,Stop,Right,333,NoStart,0,Low
jou-cmand1DR-20201112,jo,2,1028,20,29,Stop,Left,483,Left,241,High
jou-cmand1DR-20201112,jo,2,1029,20,30,Go,Right,0,Right,326,Low
jou-cmand1DR-20201112,jo,2,1030,21,1,Stop,Right,267,NoResponse,0,High
jou-cmand1DR-20201112,jo,2,1031,21,2,Stop,Left,400,Left,397,Low
jou-cmand1DR-20201112,jo,2,1032,21,3,Go,Left,0,Left,297,Low
jou-cmand1DR-20201112,jo,2,1033,21,4,Stop,Right,267,NoStart,0,High
jou-cmand1DR-20201112,jo,2,1034,21,5,Go,Left,0,Left,555,Low
jou-cmand1DR-20201112,jo,2,1035,21,6,Go,Right,0,Right,294,High
jou-cmand1DR-20201112,jo,2,1036,21,7,Stop,Right,133,NoStart,0,High
jou-cmand1DR-20201112,jo,2,1037,21,8,Stop,Left,133,NoResponse,0,Low
jou-cmand1DR-20201112,jo,2,1038,21,9,Stop,Right,200,NoStart,0,High
jou-cmand1DR-20201112,jo,2,1039,21,10,Go,Right,0,Right,279,High
jou-cmand1DR-20201112,jo,2,1040,21,11,Go,Left,0,Left,524,Low
jou-cmand1DR-20201112,jo,2,1041,21,12,Go,Left,0,NoStart,0,Low
jou-cmand1DR-20201112,jo,2,1042,21,13,Stop,Right,200,Right,264,High
jou-cmand1DR-20201112,jo,2,1043,21,14,Go,Left,0,Left,517,Low
jou-cmand1DR-20201112,jo,2,1044,21,15,Go,Right,0,Right,267,High
jou-cmand1DR-20201112,jo,2,1045,21,16,Go,Right,0,Right,319,High
jou-cmand1DR-20201112,jo,2,1046,21,17,Stop,Left,50,NoResponse,0,Low
jou-cmand1DR-20201112,jo,2,1047,21,18,Go,Left,0,Left,486,Low
jou-cmand1DR-20201112,jo,2,1048,21,19,Stop,Left,267,NoStart,0,Low
jou-cmand1DR-20201112,jo,2,1049,21,20,Go,Right,0,Right,306,High
jou-cmand1DR-20201112,jo,2,1050,21,21,Go,Left,0,Left,395,Low
jou-cmand1DR-20201112,jo,2,1051,21,22,Go,Left,0,NoStart,0,Low
jou-cmand1DR-20201112,jo,2,1052,21,23,Stop,Right,267,Right,241,High
jou-cmand1DR-20201112,jo,2,1053,21,24,Go,Left,0,Left,358,Low
jou-cmand1DR-20201112,jo,2,1054,21,25,Go,Left,0,Left,329,Low
jou-cmand1DR-20201112,jo,2,1055,21,26,Go,Left,0,NoStart,0,Low
jou-cmand1DR-20201112,jo,2,1056,21,27,Stop,Right,50,NoResponse,0,High
jou-cmand1DR-20201112,jo,2,1057,21,28,Go,Right,0,Right,272,High
jou-cmand1DR-20201112,jo,2,1058,21,29,Stop,Right,200,NoStart,0,High
jou-cmand1DR-20201112,jo,2,1059,21,30,Stop,Right,200,NoStart,0,High
jou-cmand1DR-20201112,jo,2,1060,21,31,Go,Right,0,Right,287,High
jou-cmand1DR-20201112,jo,2,1061,21,32,Go,Right,0,Right,282,High
jou-cmand1DR-20201112,jo,2,1062,21,33,Stop,Left,200,NoStart,0,Low
jou-cmand1DR-20201112,jo,2,1063,21,34,Stop,Right,200,Right,267,High
jou-cmand1DR-20201112,jo,2,1064,21,35,Go,Left,0,Left,364,Low
jou-cmand1DR-20201112,jo,2,1065,21,36,Go,Right,0,Right,294,High
jou-cmand1DR-20201112,jo,2,1066,21,37,Stop,Right,50,NoResponse,0,High
jou-cmand1DR-20201112,jo,2,1067,22,1,Stop,Left,267,NoResponse,0,High
jou-cmand1DR-20201112,jo,2,1068,22,2,Stop,Left,483,Left,534,High
jou-cmand1DR-20201112,jo,2,1069,22,3,Go,Right,0,Right,257,Low
jou-cmand1DR-20201112,jo,2,1070,22,4,Go,Right,0,Right,519,Low
jou-cmand1DR-20201112,jo,2,1071,22,5,Stop,Right,400,NoStart,0,Low
jou-cmand1DR-20201112,jo,2,1072,22,6,Stop,Left,200,Left,221,High
jou-cmand1DR-20201112,jo,2,1073,22,7,Go,Left,0,Left,281,High
jou-cmand1DR-20201112,jo,2,1074,22,8,Go,Left,0,Left,208,High
jou-cmand1DR-20201112,jo,2,1075,22,9,Stop,Left,133,Left,187,High
jou-cmand1DR-20201112,jo,2,1076,22,10,Go,Left,0,Left,222,High
jou-cmand1DR-20201112,jo,2,1077,22,11,Stop,Left,50,NoStart,0,High
jou-cmand1DR-20201112,jo,2,1078,22,12,Stop,Left,50,NoStart,0,High
jou-cmand1DR-20201112,jo,2,1079,22,13,Stop,Left,50,NoStart,0,High
jou-cmand1DR-20201112,jo,2,1080,22,14,Stop,Right,50,NoResponse,0,Low
jou-cmand1DR-20201112,jo,2,1081,22,15,Go,Left,0,Left,258,High
jou-cmand1DR-20201112,jo,2,1082,23,1,Go,Left,0,Left,263,Low
jou-cmand1DR-20201112,jo,2,1083,23,2,Go,Right,0,Right,289,High
jou-cmand1DR-20201112,jo,2,1084,23,3,Stop,Left,267,NoResponse,0,Low
jou-cmand1DR-20201112,jo,2,1085,23,4,Go,Right,0,Right,363,High
jou-cmand1DR-20201112,jo,2,1086,23,5,Stop,Left,483,NoStart,0,Low
jou-cmand1DR-20201112,jo,2,1087,23,6,Stop,Right,483,Right,298,High
jou-cmand1DR-20201112,jo,2,1088,23,7,Stop,Left,267,Left,305,Low
jou-cmand1DR-20201112,jo,2,1089,23,8,Go,Left,0,Left,328,Low
jou-cmand1DR-20201112,jo,2,1090,23,9,Go,Right,0,NoStart,0,High
jou-cmand1DR-20201112,jo,2,1091,23,10,Stop,Left,133,NoStart,0,Low
jou-cmand1DR-20201112,jo,2,1092,23,11,Go,Right,0,NoStart,0,High
jou-cmand1DR-20201112,jo,2,1093,23,12,Go,Right,0,NoStart,0,High
jou-cmand1DR-20201112,jo,2,1094,23,13,Stop,Right,50,NoResponse,0,High
jou-cmand1DR-20201112,jo,2,1095,23,14,Stop,Left,133,NoResponse,0,Low
jou-cmand1DR-20201112,jo,2,1096,23,15,Stop,Left,200,NoStart,0,Low
jou-cmand1DR-20201112,jo,2,1097,23,16,Go,Left,0,Left,331,Low
jou-cmand1DR-20201112,jo,2,1098,23,17,Go,Right,0,Right,252,High
jou-cmand1DR-20201112,jo,2,1099,23,18,Go,Right,0,Right,248,High
jou-cmand1DR-20201112,jo,2,1100,23,19,Stop,Left,200,NoStart,0,Low
jou-cmand1DR-20201112,jo,2,1101,23,20,Stop,Left,200,NoResponse,0,Low
jou-cmand1DR-20201112,jo,2,1102,23,21,Stop,Left,267,NoStart,0,Low
jou-cmand1DR-20201112,jo,2,1103,23,22,Go,Left,0,Left,423,Low
jou-cmand1DR-20201112,jo,2,1104,23,23,Stop,Right,483,NoStart,0,High
jou-cmand1DR-20201112,jo,2,1105,23,24,Stop,Right,483,Right,279,High
jou-cmand1DR-20201112,jo,2,1106,23,25,Go,Left,0,NoStart,0,Low
jou-cmand1DR-20201112,jo,2,1107,23,26,Stop,Left,333,Left,331,Low
jou-cmand1DR-20201112,jo,2,1108,23,27,Stop,Right,200,NoResponse,0,High
jou-cmand1DR-20201112,jo,2,1109,24,1,Stop,Right,333,NoResponse,0,Low
jou-cmand1DR-20201112,jo,2,1110,24,2,Go,Left,0,NoStart,0,High
jou-cmand1DR-20201112,jo,2,1111,24,3,Stop,Left,400,Left,336,High
jou-cmand1DR-20201112,jo,2,1112,24,4,Stop,Right,333,Right,345,Low
jou-cmand1DR-20201112,jo,2,1113,24,5,Stop,Right,200,NoResponse,0,Low
jou-cmand1DR-20201112,jo,2,1114,24,6,Go,Right,0,Right,355,Low
jou-cmand1DR-20201112,jo,2,1115,24,7,Stop,Right,267,NoStart,0,Low
jou-cmand1DR-20201112,jo,2,1116,24,8,Go,Right,0,NoStart,0,Low
jou-cmand1DR-20201112,jo,2,1117,24,9,Stop,Right,267,NoResponse,0,Low
jou-cmand1DR-20201112,jo,2,1118,24,10,Stop,Right,400,Right,358,Low
jou-cmand1DR-20201112,jo,2,1119,24,11,Stop,Right,267,NoResponse,0,Low
jou-cmand1DR-20201112,jo,2,1120,24,12,Go,Right,0,Right,446,Low
jou-cmand1DR-20201112,jo,2,1121,24,13,Stop,Right,333,Right,406,Low
jou-cmand1DR-20201112,jo,2,1122,24,14,Go,Right,0,NoStart,0,Low
jou-cmand1DR-20201112,jo,2,1123,24,15,Stop,Left,267,NoStart,0,High
jou-cmand1DR-20201112,jo,2,1124,24,16,Stop,Left,50,NoStart,0,High
jou-cmand1DR-20201112,jo,2,1125,24,17,Go,Left,0,NoStart,0,High
jou-cmand1DR-20201112,jo,2,1126,24,18,Go,Right,0,NoStart,0,Low
jou-cmand1DR-20201112,jo,2,1127,24,19,Go,Left,0,Left,246,High
jou-cmand1DR-20201112,jo,2,1128,24,20,Go,Right,0,Right,501,Low
jou-cmand1DR-20201112,jo,2,1129,24,21,Go,Right,0,NoStart,0,Low
jou-cmand1DR-20201112,jo,2,1130,24,22,Stop,Left,483,NoStart,0,High
jou-cmand1DR-20201112,jo,2,1131,24,23,Stop,Left,50,NoStart,0,High
jou-cmand1DR-20201112,jo,2,1132,24,24,Go,Left,0,Left,242,High
jou-cmand1DR-20201112,jo,2,1133,24,25,Go,Left,0,NoStart,0,High
jou-cmand1DR-20201112,jo,2,1134,24,26,Go,Left,0,NoStart,0,High
jou-cmand1DR-20201112,jo,2,1135,24,27,Stop,Right,333,NoResponse,0,Low
jou-cmand1DR-20201112,jo,2,1136,24,28,Go,Right,0,Right,317,Low
jou-cmand1DR-20201112,jo,2,1137,24,29,Go,Left,0,Left,266,High
jou-cmand1DR-20201112,jo,2,1138,24,30,Go,Left,0,Left,265,High
jou-cmand1DR-20201112,jo,2,1139,24,31,Go,Left,0,Left,306,High
jou-cmand1DR-20201112,jo,2,1140,24,32,Stop,Left,400,NoStart,0,High
jou-cmand1DR-20201112,jo,2,1141,24,33,Go,Right,0,Right,693,Low
jou-cmand1DR-20201112,jo,2,1142,24,34,Go,Right,0,NoStart,0,Low
jou-cmand1DR-20201112,jo,2,1143,24,35,Go,Right,0,Right,375,Low
jou-cmand1DR-20201112,jo,2,1144,24,36,Go,Right,0,NoStart,0,Low
jou-cmand1DR-20201112,jo,2,1145,24,37,Go,Right,0,NoStart,0,Low
jou-cmand1DR-20201112,jo,2,1146,24,38,Go,Left,0,NoStart,0,High
jou-cmand1DR-20201112,jo,2,1147,24,39,Go,Right,0,NoStart,0,Low
jou-cmand1DR-20201112,jo,2,1148,24,40,Go,Right,0,NoStart,0,Low
jou-cmand1DR-20201112,jo,2,1149,24,41,Stop,Left,133,NoStart,0,High
jou-cmand1DR-20201112,jo,2,1150,24,42,Stop,Right,267,NoStart,0,Low
jou-cmand1DR-20201112,jo,2,1151,24,43,Stop,Left,133,NoStart,0,High
jou-cmand1DR-20201112,jo,2,1152,24,44,Go,Left,0,NoStart,0,High
jou-cmand1DR-20201112,jo,2,1153,24,45,Go,Left,0,NoStart,0,High
jou-cmand1DR-20201112,jo,2,1154,24,46,Stop,Right,333,NoStart,0,Low
jou-cmand1DR-20201112,jo,2,1155,24,47,Go,Right,0,NoStart,0,Low
jou-cmand1DR-20201112,jo,2,1156,24,48,Go,Right,0,NoStart,0,Low
jou-cmand1DR-20201112,jo,2,1157,24,49,Go,Right,0,NoStart,0,Low
jou-cmand1DR-20201112,jo,2,1158,24,50,Go,Right,0,NoStart,0,Low
jou-cmand1DR-20201112,jo,2,1159,24,51,Go,Right,0,NoStart,0,Low
jou-cmand1DR-20201112,jo,2,1160,24,52,Stop,Right,200,NoStart,0,Low
jou-cmand1DR-20201112,jo,2,1161,24,53,Go,Left,0,NoStart,0,High
jou-cmand1DR-20201112,jo,2,1162,24,54,Stop,Right,267,NoStart,0,Low
jou-cmand1DR-20201112,jo,2,1163,24,55,Go,Left,0,NoStart,0,High
jou-cmand1DR-20201112,jo,2,1164,24,56,Go,Left,0,NoStart,0,High
jou-cmand1DR-20201112,jo,2,1165,24,57,Stop,Right,200,NoStart,0,Low
jou-cmand1DR-20201112,jo,2,1166,24,58,Stop,Left,267,NoStart,0,High
jou-cmand1DR-20201112,jo,2,1167,24,59,Go,Left,0,NoStart,0,High
jou-cmand1DR-20201112,jo,2,1168,24,60,Stop,Left,483,NoStart,0,High
jou-cmand1DR-20201112,jo,2,1169,24,61,Go,Right,0,NoStart,0,Low
jou-cmand1DR-20201112,jo,2,1170,24,62,Go,Left,0,NoStart,0,High
jou-cmand1DR-20201112,jo,2,1171,24,63,Go,Left,0,NoStart,0,High
jou-cmand1DR-20201112,jo,2,1172,24,64,Stop,Left,333,NoStart,0,High
jou-cmand1DR-20201112,jo,2,1173,24,65,Go,Right,0,NoStart,0,Low
jou-cmand1DR-20201112,jo,2,1174,24,66,Stop,Right,333,NoStart,0,Low
jou-cmand1DR-20201112,jo,2,1175,24,67,Go,Left,0,NoStart,0,High
jou-cmand1DR-20201112,jo,2,1176,24,68,Go,Left,0,NoStart,0,High
jou-cmand1DR-20201112,jo,2,1177,24,69,Go,Left,0,NoStart,0,High
jou-cmand1DR-20201112,jo,2,1178,24,70,Stop,Left,267,NoStart,0,High
jou-cmand1DR-20201112,jo,2,1179,24,71,Stop,Right,267,NoStart,0,Low
jou-cmand1DR-20201112,jo,2,1180,24,72,Stop,Left,133,NoStart,0,High
jou-cmand1DR-20201112,jo,2,1181,24,73,Go,Right,0,NoStart,0,Low
jou-cmand1DR-20201112,jo,2,1182,24,74,Stop,Right,483,NoStart,0,Low
jou-cmand1DR-20201112,jo,2,1183,24,75,Go,Left,0,NoStart,0,High
jou-cmand1DR-20201112,jo,2,1184,24,76,Go,Right,0,NoStart,0,Low
jou-cmand1DR-20201112,jo,2,1185,24,77,Stop,Right,333,NoStart,0,Low
jou-cmand1DR-20201112,jo,2,1186,24,78,Stop,Right,400,NoStart,0,Low
jou-cmand1DR-20201112,jo,2,1187,24,79,Go,Left,0,NoStart,0,High
jou-cmand1DR-20201112,jo,2,1188,24,80,Go,Left,0,NoStart,0,High
jou-cmand1DR-20201112,jo,2,1189,24,81,Stop,Right,200,NoStart,0,Low
jou-cmand1DR-20201112,jo,2,1190,24,82,Go,Left,0,NoStart,0,High
jou-cmand1DR-20201112,jo,2,1191,24,83,Stop,Right,200,NoStart,0,Low
jou-cmand1DR-20201112,jo,2,1192,24,84,Stop,Left,200,NoStart,0,High
jou-cmand1DR-20201112,jo,2,1193,24,85,Go,Right,0,NoStart,0,Low
jou-cmand1DR-20201112,jo,2,1194,24,86,Go,Left,0,NoStart,0,High
jou-cmand1DR-20201112,jo,2,1195,24,87,Stop,Left,400,NoStart,0,High
jou-cmand1DR-20201112,jo,2,1196,24,88,Go,Left,0,NoStart,0,High
jou-cmand1DR-20201112,jo,2,1197,24,89,Stop,Right,50,NoStart,0,Low
jou-cmand1DR-20201112,jo,2,1198,24,90,Go,Left,0,NoStart,0,High
jou-cmand1DR-20201112,jo,2,1199,24,91,Go,Right,0,NoStart,0,Low
jou-cmand1DR-20201112,jo,2,1200,24,92,Stop,Right,133,NoStart,0,Low
jou-cmand1DR-20201112,jo,2,1201,24,93,Stop,Right,483,NoStart,0,Low
jou-cmand1DR-20201112,jo,2,1202,24,94,Go,Left,0,NoStart,0,High
jou-cmand1DR-20201112,jo,2,1203,24,95,Go,Left,0,NoStart,0,High
jou-cmand1DR-20201112,jo,2,1204,24,96,Stop,Right,133,NoStart,0,Low
jou-cmand1DR-20201112,jo,2,1205,24,97,Go,Left,0,NoStart,0,High
jou-cmand1DR-20201112,jo,2,1206,24,98,Stop,Right,267,NoStart,0,Low
jou-cmand1DR-20201112,jo,2,1207,24,99,Go,Left,0,NoStart,0,High
jou-cmand1DR-20201112,jo,2,1208,24,100,Go,Right,0,NoStart,0,Low
jou-cmand1DR-20201112,jo,2,1209,24,101,Go,Left,0,NoStart,0,High
jou-cmand1DR-20201112,jo,2,1210,24,102,Go,Right,0,NoStart,0,Low
jou-cmand1DR-20201112,jo,2,1211,24,103,Stop,Right,50,NoStart,0,Low
jou-cmand1DR-20201112,jo,2,1212,24,104,Go,Left,0,NoStart,0,High
jou-cmand1DR-20201112,jo,2,1213,24,105,Go,Right,0,NoStart,0,Low
jou-cmand1DR-20201112,jo,2,1214,24,106,Stop,Left,133,NoStart,0,High
jou-cmand1DR-20201112,jo,2,1215,24,107,Stop,Left,483,NoStart,0,High
jou-cmand1DR-20201112,jo,2,1216,24,108,Go,Right,0,NoStart,0,Low
jou-cmand1DR-20201112,jo,2,1217,24,109,Go,Right,0,NoStart,0,Low
jou-cmand1DR-20201112,jo,2,1218,24,110,Stop,Right,200,NoStart,0,Low
jou-cmand1DR-20201112,jo,2,1219,24,111,Stop,Right,333,NoStart,0,Low
jou-cmand1DR-20201112,jo,2,1220,24,112,Go,Right,0,NoStart,0,Low
jou-cmand1DR-20201112,jo,2,1221,24,113,Stop,Right,483,NoStart,0,Low
jou-cmand1DR-20201112,jo,2,1222,24,114,Stop,Right,50,NoStart,0,Low
jou-cmand1DR-20201112,jo,2,1223,24,115,Go,Right,0,NoStart,0,Low
jou-cmand1DR-20201112,jo,2,1224,24,116,Go,Left,0,NoStart,0,High
jou-cmand1DR-20201112,jo,2,1225,24,117,Go,Left,0,NoStart,0,High
jou-cmand1DR-20201112,jo,2,1226,24,118,Go,Left,0,NoStart,0,High
jou-cmand1DR-20201112,jo,2,1227,24,119,Go,Left,0,NoStart,0,High
jou-cmand1DR-20201112,jo,2,1228,24,120,Go,Left,0,NoStart,0,High
jou-cmand1DR-20201112,jo,2,1229,24,121,Go,Left,0,NoStart,0,High
jou-cmand1DR-20201112,jo,2,1230,24,122,Stop,Right,400,NoStart,0,Low
jou-cmand1DR-20201112,jo,2,1231,24,123,Stop,Right,333,NoStart,0,Low
jou-cmand1DR-20201112,jo,2,1232,24,124,Go,Right,0,NoStart,0,Low
jou-cmand1DR-20201112,jo,2,1233,24,125,Go,Left,0,NoStart,0,High
jou-cmand1DR-20201112,jo,2,1234,24,126,Stop,Right,400,NoStart,0,Low
jou-cmand1DR-20201112,jo,2,1235,24,127,Go,Left,0,NoStart,0,High
jou-cmand1DR-20201112,jo,2,1236,24,128,Go,Right,0,NoStart,0,Low
jou-cmand1DR-20201112,jo,2,1237,24,129,Go,Right,0,NoStart,0,Low
jou-cmand1DR-20201112,jo,2,1238,24,130,Go,Right,0,NoStart,0,Low
jou-cmand1DR-20201112,jo,2,1239,24,131,Go,Right,0,NoStart,0,Low
jou-cmand1DR-20201112,jo,2,1240,24,132,Go,Right,0,NoStart,0,Low
jou-cmand1DR-20201112,jo,2,1241,24,133,Go,Left,0,NoStart,0,High
jou-cmand1DR-20201112,jo,2,1242,24,134,Stop,Right,333,NoStart,0,Low
jou-cmand1DR-20201112,jo,2,1243,24,135,Stop,Left,483,NoStart,0,High
jou-cmand1DR-20201112,jo,2,1244,24,136,Go,Left,0,NoStart,0,High
jou-cmand1DR-20201112,jo,2,1245,24,137,Stop,Right,333,NoStart,0,Low
jou-cmand1DR-20201112,jo,2,1246,24,138,Go,Left,0,NoStart,0,High
jou-cmand1DR-20201112,jo,2,1247,24,139,Stop,Left,200,NoStart,0,High
jou-cmand1DR-20201112,jo,2,1248,24,140,Stop,Left,333,NoStart,0,High
jou-cmand1DR-20201112,jo,2,1249,24,141,Go,Left,0,NoStart,0,High
jou-cmand1DR-20201112,jo,2,1250,24,142,Go,Right,0,NoStart,0,Low
jou-cmand1DR-20201112,jo,2,1251,24,143,Stop,Right,50,NoStart,0,Low
jou-cmand1DR-20201112,jo,2,1252,24,144,Stop,Right,483,NoStart,0,Low
jou-cmand1DR-20201112,jo,2,1253,24,145,Go,Left,0,NoStart,0,High
jou-cmand1DR-20201112,jo,2,1254,24,146,Stop,Right,267,NoStart,0,Low
jou-cmand1DR-20201112,jo,2,1255,24,147,Go,Left,0,NoStart,0,High
jou-cmand1DR-20201112,jo,2,1256,24,148,Go,Right,0,NoStart,0,Low
jou-cmand1DR-20201112,jo,2,1257,24,149,Go,Left,0,NoStart,0,High
jou-cmand1DR-20201112,jo,2,1258,24,150,Go,Right,0,NoStart,0,Low
jou-cmand1DR-20201112,jo,2,1259,24,151,Stop,Right,133,NoStart,0,Low
jou-cmand1DR-20201112,jo,2,1260,24,152,Go,Left,0,NoStart,0,High
jou-cmand1DR-20201112,jo,2,1261,24,153,Go,Right,0,NoStart,0,Low
jou-cmand1DR-20201112,jo,2,1262,24,154,Stop,Left,483,NoStart,0,High
jou-cmand1DR-20201112,jo,2,1263,24,155,Stop,Right,483,NoStart,0,Low
jou-cmand1DR-20201112,jo,2,1264,24,156,Go,Left,0,NoStart,0,High
jou-cmand1DR-20201112,jo,2,1265,24,157,Go,Left,0,NoStart,0,High
jou-cmand1DR-20201112,jo,2,1266,24,158,Stop,Left,50,NoStart,0,High
jou-cmand1DR-20201112,jo,2,1267,24,159,Stop,Left,133,NoStart,0,High
jou-cmand1DR-20201112,jo,2,1268,24,160,Stop,Left,400,NoStart,0,High
jou-cmand1DR-20201112,jo,2,1269,24,161,Go,Left,0,NoStart,0,High
jou-cmand1DR-20201112,jo,2,1270,24,162,Go,Right,0,NoStart,0,Low
jou-cmand1DR-20201112,jo,2,1271,24,163,Go,Left,0,NoStart,0,High
jou-cmand1DR-20201112,jo,2,1272,24,164,Stop,Left,333,NoStart,0,High
jou-cmand1DR-20201112,jo,2,1273,24,165,Go,Right,0,NoStart,0,Low
jou-cmand1DR-20201112,jo,2,1274,24,166,Go,Left,0,NoStart,0,High
jou-cmand1DR-20201112,jo,2,1275,24,167,Stop,Left,267,NoStart,0,High
jou-cmand1DR-20201112,jo,2,1276,24,168,Go,Left,0,NoStart,0,High
jou-cmand1DR-20201112,jo,2,1277,24,169,Stop,Right,483,NoStart,0,Low
jou-cmand1DR-20201112,jo,2,1278,24,170,Go,Right,0,NoStart,0,Low
jou-cmand1DR-20201112,jo,2,1279,24,171,Go,Right,0,NoStart,0,Low
jou-cmand1DR-20201112,jo,2,1280,24,172,Go,Left,0,NoStart,0,High
jou-cmand1DR-20201112,jo,2,1281,24,173,Stop,Right,400,NoStart,0,Low
jou-cmand1DR-20201112,jo,2,1282,24,174,Stop,Left,267,NoStart,0,High
jou-cmand1DR-20201112,jo,2,1283,24,175,Go,Left,0,NoStart,0,High
jou-cmand1DR-20201112,jo,2,1284,24,176,Go,Right,0,NoStart,0,Low
jou-cmand1DR-20201112,jo,2,1285,24,177,Go,Right,0,NoStart,0,Low
jou-cmand1DR-20201112,jo,2,1286,24,178,Go,Left,0,NoStart,0,High
jou-cmand1DR-20201112,jo,2,1287,24,179,Go,Right,0,NoStart,0,Low
jou-cmand1DR-20201112,jo,2,1288,24,180,Stop,Right,50,NoStart,0,Low
jou-cmand1DR-20201112,jo,2,1289,24,181,Stop,Right,267,NoStart,0,Low
jou-cmand1DR-20201112,jo,2,1290,24,182,Stop,Left,50,NoStart,0,High
jou-cmand1DR-20201112,jo,2,1291,24,183,Go,Right,0,NoStart,0,Low
jou-cmand1DR-20201112,jo,2,1292,24,184,Stop,Left,133,NoStart,0,High
jou-cmand1DR-20201112,jo,2,1293,24,185,Stop,Left,133,NoStart,0,High
jou-cmand1DR-20201112,jo,2,1294,24,186,Stop,Left,200,NoStart,0,High
jou-cmand1DR-20201112,jo,2,1295,24,187,Stop,Left,50,NoStart,0,High
jou-cmand1DR-20201112,jo,2,1296,24,188,Stop,Right,400,NoStart,0,Low
jou-cmand1DR-20201112,jo,2,1297,24,189,Go,Left,0,NoStart,0,High
jou-cmand1DR-20201112,jo,2,1298,24,190,Go,Right,0,NoStart,0,Low
jou-cmand1DR-20201112,jo,2,1299,24,191,Stop,Left,333,NoStart,0,High
jou-cmand1DR-20201112,jo,2,1300,24,192,Go,Right,0,NoStart,0,Low
jou-cmand1DR-20201112,jo,2,1301,24,193,Stop,Left,133,NoStart,0,High
jou-cmand1DR-20201112,jo,2,1302,24,194,Stop,Right,50,NoStart,0,Low
jou-cmand1DR-20201112,jo,2,1303,24,195,Go,Left,0,NoStart,0,High
jou-cmand1DR-20201112,jo,2,1304,24,196,Stop,Right,483,NoStart,0,Low
jou-cmand1DR-20201112,jo,2,1305,24,197,Stop,Right,483,NoStart,0,Low
jou-cmand1DR-20201112,jo,2,1306,24,198,Go,Right,0,NoStart,0,Low
jou-cmand1DR-20201112,jo,2,1307,24,199,Go,Right,0,NoStart,0,Low
jou-cmand1DR-20201112,jo,2,1308,24,200,Go,Left,0,NoStart,0,High
jou-cmand1DR-20201112,jo,2,1309,24,201,Stop,Left,267,NoStart,0,High
jou-cmand1DR-20201112,jo,2,1310,24,202,Go,Right,0,NoStart,0,Low
jou-cmand1DR-20201112,jo,2,1311,24,203,Go,Right,0,NoStart,0,Low
jou-cmand1DR-20201112,jo,2,1312,24,204,Stop,Right,200,NoStart,0,Low
jou-cmand1DR-20201112,jo,2,1313,24,205,Stop,Right,267,NoStart,0,Low
jou-cmand1DR-20201112,jo,2,1314,24,206,Go,Right,0,NoStart,0,Low
jou-cmand1DR-20201112,jo,2,1315,24,207,Go,Right,0,NoStart,0,Low
jou-cmand1DR-20201112,jo,2,1316,24,208,Stop,Right,267,NoStart,0,Low
jou-cmand1DR-20201112,jo,2,1317,24,209,Stop,Left,50,NoStart,0,High
jou-cmand1DR-20201112,jo,2,1318,24,210,Stop,Left,267,NoStart,0,High
jou-cmand1DR-20201112,jo,2,1319,24,211,Go,Left,0,NoStart,0,High
jou-cmand1DR-20201112,jo,2,1320,24,212,Go,Right,0,NoStart,0,Low
jou-cmand1DR-20201112,jo,2,1321,24,213,Go,Right,0,NoStart,0,Low
jou-cmand1DR-20201112,jo,2,1322,24,214,Go,Left,0,NoStart,0,High
jou-cmand1DR-20201112,jo,2,1323,24,215,Stop,Left,267,NoStart,0,High
jou-cmand1DR-20201112,jo,2,1324,24,216,Go,Left,0,NoStart,0,High
jou-cmand1DR-20201112,jo,2,1325,24,217,Stop,Right,50,NoStart,0,Low
jou-cmand1DR-20201112,jo,2,1326,24,218,Stop,Left,50,NoStart,0,High
jou-cmand1DR-20201112,jo,2,1327,24,219,Stop,Left,483,NoStart,0,High
jou-cmand1DR-20201112,jo,2,1328,24,220,Go,Left,0,NoStart,0,High
jou-cmand1DR-20201112,jo,2,1329,24,221,Stop,Left,200,NoStart,0,High
jou-cmand1DR-20201112,jo,2,1330,24,222,Go,Right,0,NoStart,0,Low
jou-cmand1DR-20201112,jo,2,1331,24,223,Stop,Right,200,NoStart,0,Low
jou-cmand1DR-20201112,jo,2,1332,24,224,Go,Right,0,NoStart,0,Low
jou-cmand1DR-20201112,jo,2,1333,24,225,Go,Right,0,NoStart,0,Low
jou-cmand1DR-20201112,jo,2,1334,24,226,Stop,Left,267,NoStart,0,High
jou-cmand1DR-20201112,jo,2,1335,24,227,Go,Right,0,NoStart,0,Low
jou-cmand1DR-20201112,jo,2,1336,24,228,Stop,Left,267,NoStart,0,High
jou-cmand1DR-20201112,jo,2,1337,24,229,Go,Right,0,NoStart,0,Low
jou-cmand1DR-20201112,jo,2,1338,24,230,Stop,Right,50,NoStart,0,Low
jou-cmand1DR-20201112,jo,2,1339,24,231,Go,Right,0,NoStart,0,Low
jou-cmand1DR-20201112,jo,2,1340,24,232,Stop,Right,267,NoStart,0,Low
jou-cmand1DR-20201112,jo,2,1341,24,233,Stop,Left,267,NoStart,0,High
jou-cmand1DR-20201112,jo,2,1342,24,234,Go,Left,0,NoStart,0,High
jou-cmand1DR-20201112,jo,2,1343,24,235,Go,Left,0,NoStart,0,High
jou-cmand1DR-20201112,jo,2,1344,24,236,Go,Left,0,NoStart,0,High
jou-cmand1DR-20201112,jo,2,1345,24,237,Stop,Left,133,NoStart,0,High
jou-cmand1DR-20201112,jo,2,1346,24,238,Go,Left,0,NoStart,0,High
jou-cmand1DR-20201112,jo,2,1347,24,239,Stop,Right,333,NoStart,0,Low
jou-cmand1DR-20201112,jo,2,1348,24,240,Stop,Left,333,NoStart,0,High
jou-cmand1DR-20201112,jo,2,1349,24,241,Stop,Left,200,NoStart,0,High
jou-cmand1DR-20201112,jo,2,1350,24,242,Go,Left,0,NoStart,0,High
jou-cmand1DR-20201112,jo,2,1351,24,243,Go,Left,0,NoStart,0,High
jou-cmand1DR-20201112,jo,2,1352,24,244,Stop,Right,133,NoStart,0,Low
jou-cmand1DR-20201112,jo,2,1353,24,245,Go,Left,0,NoStart,0,High
jou-cmand1DR-20201112,jo,2,1354,24,246,Go,Right,0,NoStart,0,Low
jou-cmand1DR-20201112,jo,2,1355,24,247,Go,Left,0,NoStart,0,High
jou-cmand1DR-20201112,jo,2,1356,24,248,Go,Left,0,NoStart,0,High
jou-cmand1DR-20201112,jo,2,1357,24,249,Stop,Right,333,NoStart,0,Low
jou-cmand1DR-20201112,jo,2,1358,24,250,Stop,Right,200,NoStart,0,Low
jou-cmand1DR-20201112,jo,2,1359,24,251,Go,Right,0,NoStart,0,Low
jou-cmand1DR-20201112,jo,2,1360,24,252,Stop,Left,267,NoStart,0,High
jou-cmand1DR-20201112,jo,2,1361,24,253,Go,Right,0,NoStart,0,Low
jou-cmand1DR-20201112,jo,2,1362,24,254,Go,Right,0,NoStart,0,Low
jou-cmand1DR-20201112,jo,2,1363,24,255,Stop,Right,400,NoStart,0,Low
jou-cmand1DR-20201112,jo,2,1364,24,256,Go,Left,0,NoStart,0,High
jou-cmand1DR-20201112,jo,2,1365,24,257,Go,Left,0,NoStart,0,High
jou-cmand1DR-20201112,jo,2,1366,24,258,Go,Right,0,NoStart,0,Low
jou-cmand1DR-20201112,jo,2,1367,24,259,Go,Left,0,NoStart,0,High
jou-cmand1DR-20201112,jo,2,1368,24,260,Stop,Left,133,NoStart,0,High
jou-cmand1DR-20201112,jo,2,1369,24,261,Go,Right,0,NoStart,0,Low
jou-cmand1DR-20201112,jo,2,1370,24,262,Go,Right,0,NoStart,0,Low
jou-cmand1DR-20201112,jo,2,1371,24,263,Go,Left,0,NoStart,0,High
jou-cmand1DR-20201112,jo,2,1372,24,264,Stop,Right,400,NoStart,0,Low
jou-cmand1DR-20201112,jo,2,1373,24,265,Go,Right,0,NoStart,0,Low
jou-cmand1DR-20201112,jo,2,1374,24,266,Stop,Left,267,NoStart,0,High
jou-cmand1DR-20201112,jo,2,1375,24,267,Go,Right,0,NoStart,0,Low
jou-cmand1DR-20201112,jo,2,1376,24,268,Go,Right,0,NoStart,0,Low
jou-cmand1DR-20201112,jo,2,1377,24,269,Go,Right,0,NoStart,0,Low
jou-cmand1DR-20201112,jo,2,1378,24,270,Go,Right,0,NoStart,0,Low
jou-cmand1DR-20201112,jo,2,1379,24,271,Stop,Right,483,NoStart,0,Low
jou-cmand1DR-20201112,jo,2,1380,24,272,Stop,Right,483,NoStart,0,Low
jou-cmand1DR-20201112,jo,2,1381,24,273,Go,Left,0,NoStart,0,High
jou-cmand1DR-20201112,jo,2,1382,24,274,Stop,Left,50,NoStart,0,High
jou-cmand1DR-20201112,jo,2,1383,24,275,Go,Left,0,NoStart,0,High
jou-cmand1DR-20201112,jo,2,1384,24,276,Stop,Right,333,NoStart,0,Low
jou-cmand1DR-20201112,jo,2,1385,24,277,Stop,Left,133,NoStart,0,High
jou-cmand1DR-20201112,jo,2,1386,24,278,Go,Left,0,NoStart,0,High
jou-cmand1DR-20201112,jo,2,1387,24,279,Go,Right,0,NoStart,0,Low
jou-cmand1DR-20201112,jo,2,1388,24,280,Stop,Right,200,NoStart,0,Low
jou-cmand1DR-20201112,jo,2,1389,24,281,Stop,Left,400,NoStart,0,High
jou-cmand1DR-20201112,jo,2,1390,24,282,Go,Right,0,NoStart,0,Low
jou-cmand1DR-20201112,jo,2,1391,24,283,Go,Left,0,NoStart,0,High
jou-cmand1DR-20201112,jo,2,1392,24,284,Stop,Right,267,NoStart,0,Low
jou-cmand1DR-20201112,jo,2,1393,24,285,Go,Right,0,NoStart,0,Low
jou-cmand1DR-20201112,jo,2,1394,24,286,Go,Right,0,NoStart,0,Low
jou-cmand1DR-20201112,jo,2,1395,24,287,Go,Left,0,NoStart,0,High
jou-cmand1DR-20201112,jo,2,1396,24,288,Go,Right,0,NoStart,0,Low
jou-cmand1DR-20201112,jo,2,1397,24,289,Stop,Right,267,NoStart,0,Low
jou-cmand1DR-20201112,jo,2,1398,24,290,Go,Left,0,NoStart,0,High
jou-cmand1DR-20201112,jo,2,1399,24,291,Stop,Left,333,NoStart,0,High
jou-cmand1DR-20201112,jo,2,1400,24,292,Go,Left,0,NoStart,0,High
jou-cmand1DR-20201112,jo,2,1401,24,293,Stop,Right,333,NoStart,0,Low
jou-cmand1DR-20201112,jo,2,1402,24,294,Go,Left,0,NoStart,0,High
jou-cmand1DR-20201112,jo,2,1403,24,295,Go,Right,0,NoStart,0,Low
jou-cmand1DR-20201112,jo,2,1404,24,296,Go,Right,0,NoStart,0,Low
jou-cmand1DR-20201112,jo,2,1405,24,297,Go,Right,0,NoStart,0,Low
jou-cmand1DR-20201112,jo,2,1406,24,298,Stop,Right,200,NoStart,0,Low
jou-cmand1DR-20201112,jo,2,1407,24,299,Stop,Right,267,NoStart,0,Low
jou-cmand1DR-20201112,jo,2,1408,24,300,Stop,Right,400,NoStart,0,Low
jou-cmand1DR-20201112,jo,2,1409,24,301,Stop,Left,400,NoStart,0,High
jou-cmand1DR-20201112,jo,2,1410,24,302,Go,Left,0,NoStart,0,High
jou-cmand1DR-20201112,jo,2,1411,24,303,Go,Left,0,NoStart,0,High
jou-cmand1DR-20201112,jo,2,1412,24,304,Stop,Right,50,NoStart,0,Low
jou-cmand1DR-20201112,jo,2,1413,24,305,Go,Right,0,NoStart,0,Low
jou-cmand1DR-20201112,jo,2,1414,24,306,Go,Left,0,NoStart,0,High
jou-cmand1DR-20201112,jo,2,1415,24,307,Go,Right,0,NoStart,0,Low
jou-cmand1DR-20201112,jo,2,1416,24,308,Stop,Left,50,NoStart,0,High
jou-cmand1DR-20201112,jo,2,1417,24,309,Stop,Left,50,NoStart,0,High
jou-cmand1DR-20201112,jo,2,1418,24,310,Go,Left,0,NoStart,0,High
jou-cmand1DR-20201112,jo,2,1419,24,311,Go,Left,0,NoStart,0,High
jou-cmand1DR-20201112,jo,2,1420,24,312,Go,Left,0,NoStart,0,High
jou-cmand1DR-20201112,jo,2,1421,24,313,Go,Right,0,NoStart,0,Low
jou-cmand1DR-20201112,jo,2,1422,24,314,Go,Left,0,NoStart,0,High
jou-cmand1DR-20201112,jo,2,1423,24,315,Go,Left,0,NoStart,0,High
jou-cmand1DR-20201112,jo,2,1424,24,316,Stop,Left,200,NoStart,0,High
jou-cmand1DR-20201112,jo,2,1425,24,317,Go,Left,0,NoStart,0,High
jou-cmand1DR-20201112,jo,2,1426,24,318,Go,Right,0,NoStart,0,Low
jou-cmand1DR-20201112,jo,2,1427,24,319,Stop,Right,400,NoStart,0,Low
jou-cmand1DR-20201112,jo,2,1428,24,320,Stop,Left,200,NoStart,0,High
jou-cmand1DR-20201112,jo,2,1429,24,321,Go,Left,0,NoStart,0,High
jou-cmand1DR-20201112,jo,2,1430,24,322,Go,Left,0,NoStart,0,High
jou-cmand1DR-20201112,jo,2,1431,24,323,Stop,Right,400,NoStart,0,Low
jou-cmand1DR-20201112,jo,2,1432,24,324,Go,Left,0,NoStart,0,High
jou-cmand1DR-20201112,jo,2,1433,24,325,Go,Left,0,NoStart,0,High
jou-cmand1DR-20201112,jo,2,1434,24,326,Stop,Right,200,NoStart,0,Low
jou-cmand1DR-20201112,jo,2,1435,24,327,Go,Left,0,NoStart,0,High
jou-cmand1DR-20201112,jo,2,1436,24,328,Go,Right,0,NoStart,0,Low
jou-cmand1DR-20201112,jo,2,1437,24,329,Stop,Left,50,NoStart,0,High
jou-cmand1DR-20201112,jo,2,1438,24,330,Go,Right,0,NoStart,0,Low
jou-cmand1DR-20201112,jo,2,1439,24,331,Stop,Right,200,NoStart,0,Low
jou-cmand1DR-20201112,jo,2,1440,24,332,Go,Left,0,NoStart,0,High
jou-cmand1DR-20201112,jo,2,1441,24,333,Go,Left,0,NoStart,0,High
jou-cmand1DR-20201112,jo,2,1442,24,334,Go,Right,0,NoStart,0,Low
jou-cmand1DR-20201112,jo,2,1443,24,335,Stop,Right,50,NoStart,0,Low
jou-cmand1DR-20201112,jo,2,1444,24,336,Go,Left,0,NoStart,0,High
jou-cmand1DR-20201112,jo,2,1445,24,337,Go,Left,0,NoStart,0,High
jou-cmand1DR-20201112,jo,2,1446,24,338,Go,Right,0,NoStart,0,Low
jou-cmand1DR-20201112,jo,2,1447,24,339,Go,Left,0,NoStart,0,High
jou-cmand1DR-20201112,jo,2,1448,24,340,Go,Left,0,NoStart,0,High
jou-cmand1DR-20201112,jo,2,1449,24,341,Go,Right,0,NoStart,0,Low
jou-cmand1DR-20201112,jo,2,1450,24,342,Stop,Left,267,NoStart,0,High
jou-cmand1DR-20201112,jo,2,1451,24,343,Go,Left,0,NoStart,0,High
jou-cmand1DR-20201112,jo,2,1452,24,344,Go,Right,0,NoStart,0,Low
jou-cmand1DR-20201112,jo,2,1453,24,345,Go,Right,0,NoStart,0,Low
jou-cmand1DR-20201112,jo,2,1454,24,346,Stop,Right,50,NoStart,0,Low
jou-cmand1DR-20201112,jo,2,1455,24,347,Go,Left,0,NoStart,0,High
jou-cmand1DR-20201112,jo,2,1456,24,348,Go,Right,0,NoStart,0,Low
jou-cmand1DR-20201112,jo,2,1457,24,349,Stop,Left,133,NoStart,0,High
jou-cmand1DR-20201112,jo,2,1458,24,350,Stop,Right,267,NoStart,0,Low
jou-cmand1DR-20201112,jo,2,1459,24,351,Stop,Right,50,NoStart,0,Low
jou-cmand1DR-20201112,jo,2,1460,24,352,Go,Left,0,NoStart,0,High
jou-cmand1DR-20201112,jo,2,1461,24,353,Go,Right,0,NoStart,0,Low
jou-cmand1DR-20201112,jo,2,1462,24,354,Go,Right,0,NoStart,0,Low
jou-cmand1DR-20201112,jo,2,1463,24,355,Go,Right,0,NoStart,0,Low
jou-cmand1DR-20201112,jo,2,1464,24,356,Go,Right,0,NoStart,0,Low
jou-cmand1DR-20201112,jo,2,1465,24,357,Stop,Right,200,NoStart,0,Low
jou-cmand1DR-20201112,jo,2,1466,24,358,Stop,Left,333,NoStart,0,High
jou-cmand1DR-20201112,jo,2,1467,24,359,Stop,Left,50,NoStart,0,High
jou-cmand1DR-20201112,jo,2,1468,24,360,Go,Right,0,NoStart,0,Low
jou-cmand1DR-20201112,jo,2,1469,24,361,Stop,Left,200,NoStart,0,High
jou-cmand1DR-20201112,jo,2,1470,24,362,Stop,Left,400,NoStart,0,High
jou-cmand1DR-20201112,jo,2,1471,24,363,Go,Right,0,NoStart,0,Low
jou-cmand1DR-20201112,jo,2,1472,24,364,Stop,Left,200,NoStart,0,High
jou-cmand1DR-20201112,jo,2,1473,24,365,Go,Left,0,NoStart,0,High
jou-cmand1DR-20201112,jo,2,1474,24,366,Stop,Right,200,NoStart,0,Low
jou-cmand1DR-20201112,jo,2,1475,24,367,Go,Right,0,NoStart,0,Low
jou-cmand1DR-20201112,jo,2,1476,24,368,Stop,Right,50,NoStart,0,Low
jou-cmand1DR-20201112,jo,2,1477,24,369,Go,Left,0,NoStart,0,High
jou-cmand1DR-20201112,jo,2,1478,24,370,Go,Left,0,NoStart,0,High
jou-cmand1DR-20201112,jo,2,1479,24,371,Stop,Left,267,NoStart,0,High
jou-cmand1DR-20201112,jo,2,1480,24,372,Go,Right,0,NoStart,0,Low
jou-cmand1DR-20201112,jo,2,1481,24,373,Go,Left,0,NoStart,0,High
jou-cmand1DR-20201112,jo,2,1482,24,374,Go,Right,0,NoStart,0,Low
jou-cmand1DR-20201112,jo,2,1483,24,375,Go,Left,0,NoStart,0,High
jou-cmand1DR-20201112,jo,2,1484,24,376,Go,Left,0,NoStart,0,High
jou-cmand1DR-20201112,jo,2,1485,24,377,Stop,Right,133,NoStart,0,Low
jou-cmand1DR-20201112,jo,2,1486,24,378,Go,Right,0,NoStart,0,Low
jou-cmand1DR-20201112,jo,2,1487,24,379,Go,Left,0,NoStart,0,High
jou-cmand1DR-20201112,jo,2,1488,24,380,Stop,Right,483,NoStart,0,Low
jou-cmand1DR-20201112,jo,2,1489,24,381,Go,Left,0,NoStart,0,High
jou-cmand1DR-20201112,jo,2,1490,24,382,Go,Left,0,NoStart,0,High
jou-cmand1DR-20201112,jo,2,1491,24,383,Stop,Right,50,NoStart,0,Low
jou-cmand1DR-20201112,jo,2,1492,24,384,Stop,Right,50,NoStart,0,Low
jou-cmand1DR-20201112,jo,2,1493,24,385,Go,Left,0,NoStart,0,High
jou-cmand1DR-20201112,jo,2,1494,24,386,Stop,Left,133,NoStart,0,High
jou-cmand1DR-20201112,jo,2,1495,24,387,Stop,Right,50,NoStart,0,Low
jou-cmand1DR-20201112,jo,2,1496,24,388,Go,Left,0,NoStart,0,High
jou-cmand1DR-20201112,jo,2,1497,24,389,Go,Right,0,NoStart,0,Low
jou-cmand1DR-20201112,jo,2,1498,24,390,Go,Right,0,NoStart,0,Low
jou-cmand1DR-20201112,jo,2,1499,24,391,Stop,Right,50,NoStart,0,Low
jou-cmand1DR-20201112,jo,2,1500,24,392,Go,Left,0,NoStart,0,High
jou-cmand1DR-20201112,jo,2,1501,24,393,Stop,Right,483,NoStart,0,Low
jou-cmand1DR-20201112,jo,2,1502,24,394,Stop,Left,483,NoStart,0,High
jou-cmand1DR-20201112,jo,2,1503,24,395,Stop,Right,133,NoStart,0,Low
jou-cmand1DR-20201112,jo,2,1504,24,396,Stop,Left,200,NoStart,0,High
jou-cmand1DR-20201112,jo,2,1505,24,397,Go,Right,0,NoStart,0,Low
jou-cmand1DR-20201112,jo,2,1506,24,398,Go,Left,0,NoStart,0,High
jou-cmand1DR-20201112,jo,2,1507,24,399,Go,Left,0,NoStart,0,High
jou-cmand1DR-20201112,jo,2,1508,24,400,Go,Left,0,NoStart,0,High
jou-cmand1DR-20201112,jo,2,1509,24,401,Go,Left,0,NoStart,0,High
jou-cmand1DR-20201112,jo,2,1510,24,402,Stop,Right,200,NoStart,0,Low
jou-cmand1DR-20201112,jo,2,1511,24,403,Go,Right,0,NoStart,0,Low
jou-cmand1DR-20201112,jo,2,1512,24,404,Go,Left,0,NoStart,0,High
jou-cmand1DR-20201112,jo,2,1513,24,405,Stop,Right,133,NoStart,0,Low
jou-cmand1DR-20201112,jo,2,1514,24,406,Stop,Left,333,NoStart,0,High
jou-cmand1DR-20201112,jo,2,1515,24,407,Go,Right,0,NoStart,0,Low
jou-cmand1DR-20201112,jo,2,1516,24,408,Stop,Left,483,NoStart,0,High
jou-cmand1DR-20201112,jo,2,1517,24,409,Stop,Right,50,NoStart,0,Low
jou-cmand1DR-20201112,jo,2,1518,24,410,Stop,Right,50,NoStart,0,Low
jou-cmand1DR-20201112,jo,2,1519,24,411,Stop,Left,200,NoStart,0,High
jou-cmand1DR-20201112,jo,2,1520,24,412,Stop,Right,483,NoStart,0,Low
jou-cmand1DR-20201112,jo,2,1521,24,413,Go,Left,0,NoStart,0,High
jou-cmand1DR-20201112,jo,2,1522,24,414,Go,Right,0,NoStart,0,Low
jou-cmand1DR-20201112,jo,2,1523,24,415,Stop,Right,200,NoStart,0,Low
jou-cmand1DR-20201112,jo,2,1524,24,416,Stop,Right,200,NoStart,0,Low
jou-cmand1DR-20201112,jo,2,1525,24,417,Go,Left,0,NoStart,0,High
jou-cmand1DR-20201112,jo,2,1526,24,418,Go,Right,0,NoStart,0,Low
jou-cmand1DR-20201112,jo,2,1527,24,419,Stop,Left,133,NoStart,0,High
jou-cmand1DR-20201112,jo,2,1528,24,420,Stop,Right,333,NoStart,0,Low
jou-cmand1DR-20201112,jo,2,1529,24,421,Go,Right,0,NoStart,0,Low
jou-cmand1DR-20201112,jo,2,1530,24,422,Go,Left,0,NoStart,0,High
jou-cmand1DR-20201112,jo,2,1531,24,423,Go,Right,0,NoStart,0,Low
jou-cmand1DR-20201112,jo,2,1532,24,424,Go,Left,0,NoStart,0,High
jou-cmand1DR-20201112,jo,2,1533,24,425,Stop,Right,483,NoStart,0,Low
jou-cmand1DR-20201112,jo,2,1534,24,426,Go,Right,0,NoStart,0,Low
jou-cmand1DR-20201112,jo,2,1535,24,427,Go,Left,0,NoStart,0,High
jou-cmand1DR-20201112,jo,2,1536,24,428,Stop,Left,333,NoStart,0,High
jou-cmand1DR-20201112,jo,2,1537,24,429,Stop,Right,200,NoStart,0,Low
jou-cmand1DR-20201112,jo,2,1538,24,430,Go,Left,0,NoStart,0,High
jou-cmand1DR-20201112,jo,2,1539,24,431,Go,Right,0,NoStart,0,Low
jou-cmand1DR-20201112,jo,2,1540,24,432,Go,Left,0,NoStart,0,High
jou-cmand1DR-20201112,jo,2,1541,24,433,Go,Right,0,NoStart,0,Low
jou-cmand1DR-20201112,jo,2,1542,24,434,Go,Left,0,NoStart,0,High
jou-cmand1DR-20201112,jo,2,1543,24,435,Stop,Left,267,NoStart,0,High
jou-cmand1DR-20201112,jo,2,1544,24,436,Stop,Left,133,NoStart,0,High
jou-cmand1DR-20201112,jo,2,1545,24,437,Go,Left,0,NoStart,0,High
