sessionName,monkeyName,sessionN,trial,block,blocktrial,trialType,targetLoc,ssd,response,rt,value
jou-cmand1DR-20201114,jo,4,1,1,1,Stop,Right,200,NoStart,0,Low
jou-cmand1DR-20201114,jo,4,2,1,2,Stop,Left,483,NoStart,0,High
jou-cmand1DR-20201114,jo,4,3,1,3,Go,Right,0,NoStart,0,Low
jou-cmand1DR-20201114,jo,4,4,1,4,Go,Right,0,NoStart,0,Low
jou-cmand1DR-20201114,jo,4,5,1,5,Go,Right,0,NoStart,0,Low
jou-cmand1DR-20201114,jo,4,6,1,6,Go,Left,0,NoStart,0,High
jou-cmand1DR-20201114,jo,4,7,1,7,Go,Right,0,NoStart,0,Low
jou-cmand1DR-20201114,jo,4,8,1,8,Go,Right,0,Right,254,Low
jou-cmand1DR-20201114,jo,4,9,1,9,Go,Right,0,Right,419,Low
jou-cmand1DR-20201114,jo,4,10,1,10,Go,Right,0,Right,307,Low
jou-cmand1DR-20201114,jo,4,11,1,11,Stop,Left,333,Left,295,High
jou-cmand1DR-20201114,jo,4,12,1,12,Go,Right,0,Right,259,Low
jou-cmand1DR-20201114,jo,4,13,1,13,Stop,Left,133,NoResponse,0,High
jou-cmand1DR-20201114,jo,4,14,1,14,Go,Left,0,Left,390,High
jou-cmand1DR-20201114,jo,4,15,1,15,Stop,Left,333,Left,216,High
jou-cmand1DR-20201114,jo,4,16,1,16,Go,Right,0,Right,342,Low
jou-cmand1DR-20201114,jo,4,17,1,17,Stop,Right,200,NoResponse,0,Low
jou-cmand1DR-20201114,jo,4,18,1,18,Go,Right,0,Right,550,Low
jou-cmand1DR-20201114,jo,4,19,2,1,Go,Left,0,Left,234,High
jou-cmand1DR-20201114,jo,4,20,2,2,Stop,Right,400,Right,434,Low
jou-cmand1DR-20201114,jo,4,21,2,3,Go,Left,0,Left,202,High
jou-cmand1DR-20201114,jo,4,22,2,4,Go,Right,0,Right,327,Low
jou-cmand1DR-20201114,jo,4,23,2,5,Stop,Right,267,NoStart,0,Low
jou-cmand1DR-20201114,jo,4,24,2,6,Go,Right,0,Right,319,Low
jou-cmand1DR-20201114,jo,4,25,2,7,Stop,Left,267,Left,250,High
jou-cmand1DR-20201114,jo,4,26,2,8,Go,Left,0,Left,215,High
jou-cmand1DR-20201114,jo,4,27,2,9,Go,Left,0,Left,210,High
jou-cmand1DR-20201114,jo,4,28,2,10,Stop,Left,200,Left,244,High
jou-cmand1DR-20201114,jo,4,29,2,11,Go,Left,0,Left,238,High
jou-cmand1DR-20201114,jo,4,30,2,12,Stop,Left,133,NoResponse,0,High
jou-cmand1DR-20201114,jo,4,31,2,13,Go,Right,0,Right,370,Low
jou-cmand1DR-20201114,jo,4,32,2,14,Stop,Left,333,Left,308,High
jou-cmand1DR-20201114,jo,4,33,2,15,Go,Right,0,Right,380,Low
jou-cmand1DR-20201114,jo,4,34,2,16,Go,Left,0,Left,241,High
jou-cmand1DR-20201114,jo,4,35,2,17,Go,Right,0,Right,246,Low
jou-cmand1DR-20201114,jo,4,36,2,18,Go,Left,0,Left,243,High
jou-cmand1DR-20201114,jo,4,37,2,19,Go,Right,0,Right,313,Low
jou-cmand1DR-20201114,jo,4,38,2,20,Go,Left,0,Left,260,High
jou-cmand1DR-20201114,jo,4,39,2,21,Go,Right,0,Right,293,Low
jou-cmand1DR-20201114,jo,4,40,2,22,Stop,Right,200,NoResponse,0,Low
jou-cmand1DR-20201114,jo,4,41,2,23,Go,Left,0,Left,264,High
jou-cmand1DR-20201114,jo,4,42,2,24,Go,Right,0,Right,307,Low
jou-cmand1DR-20201114,jo,4,43,2,25,Go,Right,0,Right,298,Low
jou-cmand1DR-20201114,jo,4,44,2,26,Stop,Left,333,Left,268,High
jou-cmand1DR-20201114,jo,4,45,2,27,Go,Left,0,Left,233,High
jou-cmand1DR-20201114,jo,4,46,3,1,Go,Right,0,Right,332,High
jou-cmand1DR-20201114,jo,4,47,3,2,Go,Right,0,Right,233,High
jou-cmand1DR-20201114,jo,4,48,3,3,Stop,Right,200,Right,218,High
jou-cmand1DR-20201114,jo,4,49,3,4,Go,Left,0,Left,378,Low
jou-cmand1DR-20201114,jo,4,50,3,5,Stop,Right,133,NoStart,0,High
jou-cmand1DR-20201114,jo,4,51,3,6,Go,Left,0,Left,407,Low
jou-cmand1DR-20201114,jo,4,52,3,7,Go,Right,0,Right,238,High
jou-cmand1DR-20201114,jo,4,53,3,8,Go,Right,0,Right,244,High
jou-cmand1DR-20201114,jo,4,54,3,9,Stop,Left,133,NoResponse,0,Low
jou-cmand1DR-20201114,jo,4,55,3,10,Stop,Right,200,Right,222,High
jou-cmand1DR-20201114,jo,4,56,3,11,Go,Left,0,Left,296,Low
jou-cmand1DR-20201114,jo,4,57,3,12,Go,Left,0,Left,301,Low
jou-cmand1DR-20201114,jo,4,58,3,13,Go,Right,0,Right,226,High
jou-cmand1DR-20201114,jo,4,59,3,14,Go,Right,0,Right,247,High
jou-cmand1DR-20201114,jo,4,60,3,15,Go,Right,0,Right,239,High
jou-cmand1DR-20201114,jo,4,61,3,16,Go,Right,0,Right,229,High
jou-cmand1DR-20201114,jo,4,62,3,17,Stop,Left,333,Left,398,Low
jou-cmand1DR-20201114,jo,4,63,3,18,Go,Left,0,Left,353,Low
jou-cmand1DR-20201114,jo,4,64,3,19,Go,Left,0,Left,311,Low
jou-cmand1DR-20201114,jo,4,65,4,1,Go,Left,0,Left,313,High
jou-cmand1DR-20201114,jo,4,66,4,2,Go,Right,0,Right,250,Low
jou-cmand1DR-20201114,jo,4,67,4,3,Go,Left,0,Left,238,High
jou-cmand1DR-20201114,jo,4,68,4,4,Go,Left,0,Left,240,High
jou-cmand1DR-20201114,jo,4,69,4,5,Go,Right,0,Right,441,Low
jou-cmand1DR-20201114,jo,4,70,4,6,Stop,Left,267,Left,217,High
jou-cmand1DR-20201114,jo,4,71,4,7,Stop,Left,50,NoResponse,0,High
jou-cmand1DR-20201114,jo,4,72,4,8,Stop,Right,267,NoStart,0,Low
jou-cmand1DR-20201114,jo,4,73,4,9,Go,Left,0,Left,265,High
jou-cmand1DR-20201114,jo,4,74,4,10,Go,Left,0,Left,243,High
jou-cmand1DR-20201114,jo,4,75,4,11,Go,Left,0,Left,206,High
jou-cmand1DR-20201114,jo,4,76,4,12,Stop,Left,267,Left,221,High
jou-cmand1DR-20201114,jo,4,77,4,13,Go,Left,0,Left,230,High
jou-cmand1DR-20201114,jo,4,78,4,14,Go,Left,0,Left,210,High
jou-cmand1DR-20201114,jo,4,79,4,15,Go,Right,0,NoStart,0,Low
jou-cmand1DR-20201114,jo,4,80,4,16,Go,Right,0,NoStart,0,Low
jou-cmand1DR-20201114,jo,4,81,4,17,Go,Left,0,Left,218,High
jou-cmand1DR-20201114,jo,4,82,4,18,Go,Right,0,Right,312,Low
jou-cmand1DR-20201114,jo,4,83,4,19,Go,Right,0,Right,483,Low
jou-cmand1DR-20201114,jo,4,84,4,20,Stop,Left,400,NoStart,0,High
jou-cmand1DR-20201114,jo,4,85,4,21,Go,Right,0,Right,375,Low
jou-cmand1DR-20201114,jo,4,86,4,22,Go,Left,0,Left,229,High
jou-cmand1DR-20201114,jo,4,87,4,23,Stop,Left,50,NoResponse,0,High
jou-cmand1DR-20201114,jo,4,88,4,24,Stop,Left,267,Left,252,High
jou-cmand1DR-20201114,jo,4,89,4,25,Stop,Right,50,NoResponse,0,Low
jou-cmand1DR-20201114,jo,4,90,4,26,Go,Left,0,Left,254,High
jou-cmand1DR-20201114,jo,4,91,4,27,Go,Left,0,Left,228,High
jou-cmand1DR-20201114,jo,4,92,4,28,Stop,Left,200,Left,246,High
jou-cmand1DR-20201114,jo,4,93,4,29,Stop,Right,50,NoResponse,0,Low
jou-cmand1DR-20201114,jo,4,94,4,30,Go,Right,0,Right,334,Low
jou-cmand1DR-20201114,jo,4,95,4,31,Stop,Right,200,NoResponse,0,Low
jou-cmand1DR-20201114,jo,4,96,4,32,Go,Right,0,Right,303,Low
jou-cmand1DR-20201114,jo,4,97,4,33,Go,Left,0,Left,241,High
jou-cmand1DR-20201114,jo,4,98,4,34,Go,Right,0,Right,315,Low
jou-cmand1DR-20201114,jo,4,99,5,1,Go,Left,0,Left,227,Low
jou-cmand1DR-20201114,jo,4,100,5,2,Go,Right,0,Right,319,High
jou-cmand1DR-20201114,jo,4,101,5,3,Stop,Left,333,Left,292,Low
jou-cmand1DR-20201114,jo,4,102,5,4,Go,Right,0,Right,226,High
jou-cmand1DR-20201114,jo,4,103,5,5,Stop,Left,267,NoResponse,0,Low
jou-cmand1DR-20201114,jo,4,104,5,6,Stop,Left,333,Left,384,Low
jou-cmand1DR-20201114,jo,4,105,5,7,Go,Left,0,Left,302,Low
jou-cmand1DR-20201114,jo,4,106,5,8,Stop,Right,133,NoResponse,0,High
jou-cmand1DR-20201114,jo,4,107,5,9,Go,Right,0,Right,404,High
jou-cmand1DR-20201114,jo,4,108,5,10,Go,Right,0,Right,234,High
jou-cmand1DR-20201114,jo,4,109,5,11,Go,Right,0,Right,259,High
jou-cmand1DR-20201114,jo,4,110,5,12,Go,Right,0,Right,239,High
jou-cmand1DR-20201114,jo,4,111,5,13,Stop,Right,333,Right,240,High
jou-cmand1DR-20201114,jo,4,112,5,14,Go,Left,0,Left,363,Low
jou-cmand1DR-20201114,jo,4,113,5,15,Go,Left,0,Left,374,Low
jou-cmand1DR-20201114,jo,4,114,5,16,Go,Right,0,Right,223,High
jou-cmand1DR-20201114,jo,4,115,5,17,Stop,Left,200,NoResponse,0,Low
jou-cmand1DR-20201114,jo,4,116,5,18,Go,Right,0,Right,273,High
jou-cmand1DR-20201114,jo,4,117,5,19,Go,Right,0,Right,282,High
jou-cmand1DR-20201114,jo,4,118,5,20,Stop,Left,400,Left,350,Low
jou-cmand1DR-20201114,jo,4,119,5,21,Stop,Right,200,Right,259,High
jou-cmand1DR-20201114,jo,4,120,5,22,Go,Left,0,Left,328,Low
jou-cmand1DR-20201114,jo,4,121,5,23,Go,Right,0,Right,292,High
jou-cmand1DR-20201114,jo,4,122,5,24,Stop,Right,133,NoResponse,0,High
jou-cmand1DR-20201114,jo,4,123,5,25,Go,Right,0,Right,255,High
jou-cmand1DR-20201114,jo,4,124,5,26,Go,Right,0,Right,290,High
jou-cmand1DR-20201114,jo,4,125,6,1,Go,Left,0,Left,416,High
jou-cmand1DR-20201114,jo,4,126,6,2,Stop,Right,200,NoResponse,0,Low
jou-cmand1DR-20201114,jo,4,127,6,3,Go,Left,0,Left,244,High
jou-cmand1DR-20201114,jo,4,128,6,4,Stop,Left,333,Left,264,High
jou-cmand1DR-20201114,jo,4,129,6,5,Go,Right,0,Right,604,Low
jou-cmand1DR-20201114,jo,4,130,6,6,Go,Left,0,Left,236,High
jou-cmand1DR-20201114,jo,4,131,6,7,Go,Left,0,Left,231,High
jou-cmand1DR-20201114,jo,4,132,6,8,Go,Left,0,Left,224,High
jou-cmand1DR-20201114,jo,4,133,6,9,Stop,Right,200,NoResponse,0,Low
jou-cmand1DR-20201114,jo,4,134,6,10,Go,Right,0,NoStart,0,Low
jou-cmand1DR-20201114,jo,4,135,6,11,Go,Right,0,Right,377,Low
jou-cmand1DR-20201114,jo,4,136,6,12,Go,Right,0,Right,343,Low
jou-cmand1DR-20201114,jo,4,137,6,13,Go,Left,0,Left,214,High
jou-cmand1DR-20201114,jo,4,138,6,14,Go,Right,0,Right,475,Low
jou-cmand1DR-20201114,jo,4,139,6,15,Stop,Left,267,Left,251,High
jou-cmand1DR-20201114,jo,4,140,6,16,Stop,Right,200,NoResponse,0,Low
jou-cmand1DR-20201114,jo,4,141,6,17,Stop,Right,400,Right,411,Low
jou-cmand1DR-20201114,jo,4,142,6,18,Stop,Right,333,Right,352,Low
jou-cmand1DR-20201114,jo,4,143,6,19,Go,Left,0,Left,182,High
jou-cmand1DR-20201114,jo,4,144,6,20,Stop,Left,133,NoResponse,0,High
jou-cmand1DR-20201114,jo,4,145,7,1,Go,Right,0,Right,446,High
jou-cmand1DR-20201114,jo,4,146,7,2,Go,Left,0,Left,276,Low
jou-cmand1DR-20201114,jo,4,147,7,3,Go,Left,0,Left,229,Low
jou-cmand1DR-20201114,jo,4,148,7,4,Go,Right,0,Right,276,High
jou-cmand1DR-20201114,jo,4,149,7,5,Go,Right,0,Right,222,High
jou-cmand1DR-20201114,jo,4,150,7,6,Stop,Left,333,NoStart,0,Low
jou-cmand1DR-20201114,jo,4,151,7,7,Go,Right,0,Right,247,High
jou-cmand1DR-20201114,jo,4,152,7,8,Stop,Right,200,Right,239,High
jou-cmand1DR-20201114,jo,4,153,7,9,Stop,Right,133,NoResponse,0,High
jou-cmand1DR-20201114,jo,4,154,7,10,Stop,Left,333,Left,386,Low
jou-cmand1DR-20201114,jo,4,155,7,11,Stop,Left,133,NoStart,0,Low
jou-cmand1DR-20201114,jo,4,156,7,12,Stop,Right,133,NoStart,0,High
jou-cmand1DR-20201114,jo,4,157,7,13,Stop,Left,133,NoResponse,0,Low
jou-cmand1DR-20201114,jo,4,158,7,14,Go,Right,0,Right,247,High
jou-cmand1DR-20201114,jo,4,159,7,15,Go,Left,0,Left,295,Low
jou-cmand1DR-20201114,jo,4,160,7,16,Stop,Left,200,NoStart,0,Low
jou-cmand1DR-20201114,jo,4,161,7,17,Go,Left,0,NoStart,0,Low
jou-cmand1DR-20201114,jo,4,162,7,18,Go,Left,0,Left,372,Low
jou-cmand1DR-20201114,jo,4,163,7,19,Go,Left,0,Left,350,Low
jou-cmand1DR-20201114,jo,4,164,7,20,Go,Left,0,Left,575,Low
jou-cmand1DR-20201114,jo,4,165,7,21,Go,Right,0,NoStart,0,High
jou-cmand1DR-20201114,jo,4,166,7,22,Go,Left,0,Left,431,Low
jou-cmand1DR-20201114,jo,4,167,7,23,Go,Left,0,Left,401,Low
jou-cmand1DR-20201114,jo,4,168,7,24,Stop,Left,200,NoStart,0,Low
jou-cmand1DR-20201114,jo,4,169,7,25,Stop,Left,200,NoResponse,0,Low
jou-cmand1DR-20201114,jo,4,170,7,26,Stop,Left,333,NoResponse,0,Low
jou-cmand1DR-20201114,jo,4,171,7,27,Stop,Left,400,Left,321,Low
jou-cmand1DR-20201114,jo,4,172,7,28,Stop,Left,200,NoResponse,0,Low
jou-cmand1DR-20201114,jo,4,173,7,29,Go,Right,0,Right,234,High
jou-cmand1DR-20201114,jo,4,174,7,30,Go,Right,0,Right,260,High
jou-cmand1DR-20201114,jo,4,175,8,1,Stop,Right,333,Right,235,Low
jou-cmand1DR-20201114,jo,4,176,8,2,Stop,Right,267,Right,250,Low
jou-cmand1DR-20201114,jo,4,177,8,3,Stop,Right,200,NoResponse,0,Low
jou-cmand1DR-20201114,jo,4,178,8,4,Go,Right,0,Right,335,Low
jou-cmand1DR-20201114,jo,4,179,8,5,Stop,Left,333,Left,271,High
jou-cmand1DR-20201114,jo,4,180,8,6,Go,Left,0,Left,277,High
jou-cmand1DR-20201114,jo,4,181,8,7,Go,Right,0,Right,361,Low
jou-cmand1DR-20201114,jo,4,182,8,8,Go,Left,0,Left,230,High
jou-cmand1DR-20201114,jo,4,183,8,9,Stop,Right,200,NoStart,0,Low
jou-cmand1DR-20201114,jo,4,184,8,10,Go,Right,0,Right,337,Low
jou-cmand1DR-20201114,jo,4,185,8,11,Stop,Left,50,NoResponse,0,High
jou-cmand1DR-20201114,jo,4,186,8,12,Stop,Left,267,Left,238,High
jou-cmand1DR-20201114,jo,4,187,8,13,Stop,Left,133,NoStart,0,High
jou-cmand1DR-20201114,jo,4,188,8,14,Go,Left,0,Left,202,High
jou-cmand1DR-20201114,jo,4,189,8,15,Stop,Left,400,Left,237,High
jou-cmand1DR-20201114,jo,4,190,8,16,Stop,Right,267,NoResponse,0,Low
jou-cmand1DR-20201114,jo,4,191,8,17,Stop,Right,400,NoResponse,0,Low
jou-cmand1DR-20201114,jo,4,192,8,18,Go,Left,0,Left,271,High
jou-cmand1DR-20201114,jo,4,193,8,19,Go,Left,0,Left,250,High
jou-cmand1DR-20201114,jo,4,194,8,20,Go,Right,0,Right,338,Low
jou-cmand1DR-20201114,jo,4,195,8,21,Stop,Right,483,Right,386,Low
jou-cmand1DR-20201114,jo,4,196,8,22,Stop,Left,333,Left,214,High
jou-cmand1DR-20201114,jo,4,197,8,23,Stop,Right,200,NoResponse,0,Low
jou-cmand1DR-20201114,jo,4,198,8,24,Stop,Left,400,Left,231,High
jou-cmand1DR-20201114,jo,4,199,8,25,Go,Right,0,Right,338,Low
jou-cmand1DR-20201114,jo,4,200,8,26,Go,Left,0,Left,238,High
jou-cmand1DR-20201114,jo,4,201,8,27,Go,Left,0,Left,220,High
jou-cmand1DR-20201114,jo,4,202,8,28,Stop,Left,267,Left,216,High
jou-cmand1DR-20201114,jo,4,203,8,29,Go,Right,0,Right,373,Low
jou-cmand1DR-20201114,jo,4,204,8,30,Go,Left,0,Left,237,High
jou-cmand1DR-20201114,jo,4,205,8,31,Go,Right,0,Right,604,Low
jou-cmand1DR-20201114,jo,4,206,8,32,Stop,Left,50,NoStart,0,High
jou-cmand1DR-20201114,jo,4,207,8,33,Stop,Left,50,NoResponse,0,High
jou-cmand1DR-20201114,jo,4,208,8,34,Go,Left,0,Left,226,High
jou-cmand1DR-20201114,jo,4,209,8,35,Stop,Right,267,Right,338,Low
jou-cmand1DR-20201114,jo,4,210,8,36,Go,Right,0,Right,312,Low
jou-cmand1DR-20201114,jo,4,211,8,37,Stop,Left,200,Left,222,High
jou-cmand1DR-20201114,jo,4,212,8,38,Go,Right,0,Right,320,Low
jou-cmand1DR-20201114,jo,4,213,8,39,Stop,Right,50,NoResponse,0,Low
jou-cmand1DR-20201114,jo,4,214,8,40,Stop,Right,200,NoResponse,0,Low
jou-cmand1DR-20201114,jo,4,215,8,41,Go,Left,0,Left,226,High
jou-cmand1DR-20201114,jo,4,216,8,42,Stop,Right,267,NoStart,0,Low
jou-cmand1DR-20201114,jo,4,217,8,43,Stop,Right,267,NoResponse,0,Low
jou-cmand1DR-20201114,jo,4,218,8,44,Go,Left,0,Left,263,High
jou-cmand1DR-20201114,jo,4,219,8,45,Stop,Right,400,Right,334,Low
jou-cmand1DR-20201114,jo,4,220,8,46,Stop,Left,333,Left,233,High
jou-cmand1DR-20201114,jo,4,221,8,47,Stop,Right,200,NoResponse,0,Low
jou-cmand1DR-20201114,jo,4,222,8,48,Stop,Right,333,NoResponse,0,Low
jou-cmand1DR-20201114,jo,4,223,8,49,Stop,Right,483,Right,552,Low
jou-cmand1DR-20201114,jo,4,224,8,50,Go,Left,0,Left,247,High
jou-cmand1DR-20201114,jo,4,225,8,51,Stop,Right,333,Right,364,Low
jou-cmand1DR-20201114,jo,4,226,8,52,Stop,Right,200,NoResponse,0,Low
jou-cmand1DR-20201114,jo,4,227,9,1,Go,Left,0,Left,223,Low
jou-cmand1DR-20201114,jo,4,228,9,2,Go,Right,0,Right,320,High
jou-cmand1DR-20201114,jo,4,229,9,3,Go,Left,0,Left,430,Low
jou-cmand1DR-20201114,jo,4,230,9,4,Stop,Left,400,Left,377,Low
jou-cmand1DR-20201114,jo,4,231,9,5,Go,Left,0,Left,499,Low
jou-cmand1DR-20201114,jo,4,232,9,6,Stop,Left,333,Left,397,Low
jou-cmand1DR-20201114,jo,4,233,9,7,Stop,Left,267,NoResponse,0,Low
jou-cmand1DR-20201114,jo,4,234,9,8,Go,Right,0,Right,281,High
jou-cmand1DR-20201114,jo,4,235,9,9,Stop,Right,333,Right,222,High
jou-cmand1DR-20201114,jo,4,236,9,10,Go,Right,0,Right,237,High
jou-cmand1DR-20201114,jo,4,237,9,11,Go,Right,0,Right,237,High
jou-cmand1DR-20201114,jo,4,238,9,12,Go,Left,0,Left,362,Low
jou-cmand1DR-20201114,jo,4,239,9,13,Go,Left,0,Left,360,Low
jou-cmand1DR-20201114,jo,4,240,9,14,Stop,Left,200,NoStart,0,Low
jou-cmand1DR-20201114,jo,4,241,9,15,Stop,Left,200,NoResponse,0,Low
jou-cmand1DR-20201114,jo,4,242,9,16,Go,Right,0,Right,228,High
jou-cmand1DR-20201114,jo,4,243,10,1,Stop,Right,400,Right,247,Low
jou-cmand1DR-20201114,jo,4,244,10,2,Go,Right,0,Right,257,Low
jou-cmand1DR-20201114,jo,4,245,10,3,Stop,Left,333,Left,279,High
jou-cmand1DR-20201114,jo,4,246,10,4,Stop,Left,200,NoResponse,0,High
jou-cmand1DR-20201114,jo,4,247,10,5,Go,Right,0,Right,266,Low
jou-cmand1DR-20201114,jo,4,248,10,6,Go,Left,0,Left,314,High
jou-cmand1DR-20201114,jo,4,249,10,7,Stop,Right,400,Right,285,Low
jou-cmand1DR-20201114,jo,4,250,10,8,Stop,Left,267,Left,250,High
jou-cmand1DR-20201114,jo,4,251,10,9,Go,Right,0,Right,503,Low
jou-cmand1DR-20201114,jo,4,252,10,10,Go,Right,0,Right,685,Low
jou-cmand1DR-20201114,jo,4,253,10,11,Go,Right,0,Right,342,Low
jou-cmand1DR-20201114,jo,4,254,10,12,Go,Left,0,Left,242,High
jou-cmand1DR-20201114,jo,4,255,10,13,Go,Left,0,Left,243,High
jou-cmand1DR-20201114,jo,4,256,10,14,Go,Right,0,Right,583,Low
jou-cmand1DR-20201114,jo,4,257,10,15,Go,Left,0,Left,222,High
jou-cmand1DR-20201114,jo,4,258,10,16,Go,Left,0,Left,225,High
jou-cmand1DR-20201114,jo,4,259,10,17,Go,Left,0,Left,213,High
jou-cmand1DR-20201114,jo,4,260,10,18,Stop,Left,50,NoResponse,0,High
jou-cmand1DR-20201114,jo,4,261,10,19,Go,Right,0,Right,513,Low
jou-cmand1DR-20201114,jo,4,262,10,20,Go,Right,0,Right,287,Low
jou-cmand1DR-20201114,jo,4,263,10,21,Stop,Right,200,NoResponse,0,Low
jou-cmand1DR-20201114,jo,4,264,10,22,Go,Left,0,Left,270,High
jou-cmand1DR-20201114,jo,4,265,10,23,Stop,Right,400,Right,456,Low
jou-cmand1DR-20201114,jo,4,266,10,24,Go,Left,0,Left,237,High
jou-cmand1DR-20201114,jo,4,267,10,25,Go,Left,0,Left,230,High
jou-cmand1DR-20201114,jo,4,268,10,26,Go,Right,0,Right,262,Low
jou-cmand1DR-20201114,jo,4,269,10,27,Stop,Left,267,Left,247,High
jou-cmand1DR-20201114,jo,4,270,10,28,Go,Right,0,Right,347,Low
jou-cmand1DR-20201114,jo,4,271,10,29,Stop,Left,133,NoStart,0,High
jou-cmand1DR-20201114,jo,4,272,10,30,Stop,Right,133,NoResponse,0,Low
jou-cmand1DR-20201114,jo,4,273,11,1,Go,Right,0,Right,339,High
jou-cmand1DR-20201114,jo,4,274,11,2,Go,Left,0,Left,379,Low
jou-cmand1DR-20201114,jo,4,275,11,3,Stop,Left,200,NoStart,0,Low
jou-cmand1DR-20201114,jo,4,276,11,4,Stop,Left,200,NoResponse,0,Low
jou-cmand1DR-20201114,jo,4,277,11,5,Stop,Right,400,Right,236,High
jou-cmand1DR-20201114,jo,4,278,11,6,Go,Right,0,Right,271,High
jou-cmand1DR-20201114,jo,4,279,11,7,Stop,Right,333,Right,286,High
jou-cmand1DR-20201114,jo,4,280,11,8,Go,Left,0,Left,336,Low
jou-cmand1DR-20201114,jo,4,281,11,9,Go,Left,0,Left,408,Low
jou-cmand1DR-20201114,jo,4,282,11,10,Stop,Left,133,NoStart,0,Low
jou-cmand1DR-20201114,jo,4,283,11,11,Go,Left,0,NoStart,0,Low
jou-cmand1DR-20201114,jo,4,284,11,12,Go,Left,0,Left,413,Low
jou-cmand1DR-20201114,jo,4,285,11,13,Go,Left,0,Left,258,Low
jou-cmand1DR-20201114,jo,4,286,11,14,Go,Left,0,Left,389,Low
jou-cmand1DR-20201114,jo,4,287,11,15,Stop,Right,133,NoStart,0,High
jou-cmand1DR-20201114,jo,4,288,11,16,Stop,Right,133,NoStart,0,High
jou-cmand1DR-20201114,jo,4,289,11,17,Go,Right,0,Right,445,High
jou-cmand1DR-20201114,jo,4,290,11,18,Go,Right,0,Right,216,High
jou-cmand1DR-20201114,jo,4,291,11,19,Go,Left,0,Left,335,Low
jou-cmand1DR-20201114,jo,4,292,11,20,Stop,Right,133,NoStart,0,High
jou-cmand1DR-20201114,jo,4,293,11,21,Go,Right,0,Right,258,High
jou-cmand1DR-20201114,jo,4,294,11,22,Go,Right,0,Right,233,High
jou-cmand1DR-20201114,jo,4,295,11,23,Go,Right,0,Right,237,High
jou-cmand1DR-20201114,jo,4,296,11,24,Go,Right,0,NoStart,0,High
jou-cmand1DR-20201114,jo,4,297,11,25,Stop,Left,133,NoResponse,0,Low
jou-cmand1DR-20201114,jo,4,298,11,26,Go,Left,0,Left,452,Low
jou-cmand1DR-20201114,jo,4,299,12,1,Stop,Left,200,NoResponse,0,High
jou-cmand1DR-20201114,jo,4,300,12,2,Stop,Left,333,Left,292,High
jou-cmand1DR-20201114,jo,4,301,12,3,Stop,Left,267,NoStart,0,High
jou-cmand1DR-20201114,jo,4,302,12,4,Stop,Left,200,NoResponse,0,High
jou-cmand1DR-20201114,jo,4,303,12,5,Stop,Left,400,NoStart,0,High
jou-cmand1DR-20201114,jo,4,304,12,6,Go,Right,0,Right,477,Low
jou-cmand1DR-20201114,jo,4,305,12,7,Go,Right,0,Right,385,Low
jou-cmand1DR-20201114,jo,4,306,12,8,Go,Left,0,Left,276,High
jou-cmand1DR-20201114,jo,4,307,12,9,Go,Right,0,Right,359,Low
jou-cmand1DR-20201114,jo,4,308,12,10,Go,Right,0,Right,268,Low
jou-cmand1DR-20201114,jo,4,309,12,11,Stop,Right,200,NoResponse,0,Low
jou-cmand1DR-20201114,jo,4,310,12,12,Stop,Left,400,Left,233,High
jou-cmand1DR-20201114,jo,4,311,12,13,Go,Right,0,Right,313,Low
jou-cmand1DR-20201114,jo,4,312,12,14,Go,Right,0,Right,475,Low
jou-cmand1DR-20201114,jo,4,313,12,15,Go,Left,0,Left,201,High
jou-cmand1DR-20201114,jo,4,314,12,16,Go,Left,0,Left,246,High
jou-cmand1DR-20201114,jo,4,315,13,1,Go,Left,0,Left,221,Low
jou-cmand1DR-20201114,jo,4,316,13,2,Go,Left,0,Left,413,Low
jou-cmand1DR-20201114,jo,4,317,13,3,Go,Right,0,Right,477,High
jou-cmand1DR-20201114,jo,4,318,13,4,Go,Right,0,Right,270,High
jou-cmand1DR-20201114,jo,4,319,13,5,Go,Right,0,Right,230,High
jou-cmand1DR-20201114,jo,4,320,13,6,Stop,Left,200,NoResponse,0,Low
jou-cmand1DR-20201114,jo,4,321,13,7,Go,Right,0,Right,285,High
jou-cmand1DR-20201114,jo,4,322,13,8,Stop,Right,400,Right,297,High
jou-cmand1DR-20201114,jo,4,323,13,9,Go,Right,0,Right,305,High
jou-cmand1DR-20201114,jo,4,324,13,10,Go,Right,0,Right,252,High
jou-cmand1DR-20201114,jo,4,325,13,11,Stop,Right,267,Right,260,High
jou-cmand1DR-20201114,jo,4,326,13,12,Go,Left,0,Left,447,Low
jou-cmand1DR-20201114,jo,4,327,13,13,Go,Right,0,Right,259,High
jou-cmand1DR-20201114,jo,4,328,13,14,Stop,Left,200,NoResponse,0,Low
jou-cmand1DR-20201114,jo,4,329,13,15,Stop,Left,400,Left,390,Low
jou-cmand1DR-20201114,jo,4,330,13,16,Go,Right,0,Right,265,High
jou-cmand1DR-20201114,jo,4,331,13,17,Go,Left,0,Left,289,Low
jou-cmand1DR-20201114,jo,4,332,13,18,Go,Left,0,Left,309,Low
jou-cmand1DR-20201114,jo,4,333,13,19,Go,Right,0,Right,402,High
jou-cmand1DR-20201114,jo,4,334,13,20,Go,Right,0,Right,257,High
jou-cmand1DR-20201114,jo,4,335,14,1,Stop,Left,333,Left,290,High
jou-cmand1DR-20201114,jo,4,336,14,2,Stop,Right,200,NoResponse,0,Low
jou-cmand1DR-20201114,jo,4,337,14,3,Stop,Left,400,Left,304,High
jou-cmand1DR-20201114,jo,4,338,14,4,Stop,Left,267,NoStart,0,High
jou-cmand1DR-20201114,jo,4,339,14,5,Go,Left,0,Left,309,High
jou-cmand1DR-20201114,jo,4,340,14,6,Go,Right,0,Right,346,Low
jou-cmand1DR-20201114,jo,4,341,14,7,Go,Left,0,Left,238,High
jou-cmand1DR-20201114,jo,4,342,14,8,Go,Right,0,Right,345,Low
jou-cmand1DR-20201114,jo,4,343,14,9,Go,Left,0,Left,265,High
jou-cmand1DR-20201114,jo,4,344,14,10,Go,Right,0,Right,309,Low
jou-cmand1DR-20201114,jo,4,345,14,11,Go,Left,0,Left,226,High
jou-cmand1DR-20201114,jo,4,346,14,12,Go,Left,0,Left,302,High
jou-cmand1DR-20201114,jo,4,347,14,13,Go,Left,0,Left,234,High
jou-cmand1DR-20201114,jo,4,348,14,14,Go,Right,0,Right,450,Low
jou-cmand1DR-20201114,jo,4,349,14,15,Go,Left,0,Left,234,High
jou-cmand1DR-20201114,jo,4,350,14,16,Stop,Left,50,NoStart,0,High
jou-cmand1DR-20201114,jo,4,351,14,17,Stop,Right,133,NoResponse,0,Low
jou-cmand1DR-20201114,jo,4,352,14,18,Stop,Left,333,Left,216,High
jou-cmand1DR-20201114,jo,4,353,14,19,Stop,Left,133,NoResponse,0,High
jou-cmand1DR-20201114,jo,4,354,15,1,Go,Right,0,Right,403,High
jou-cmand1DR-20201114,jo,4,355,15,2,Stop,Right,200,Right,241,High
jou-cmand1DR-20201114,jo,4,356,15,3,Go,Left,0,Left,258,Low
jou-cmand1DR-20201114,jo,4,357,15,4,Stop,Left,50,NoResponse,0,Low
jou-cmand1DR-20201114,jo,4,358,15,5,Go,Left,0,Left,384,Low
jou-cmand1DR-20201114,jo,4,359,15,6,Go,Left,0,Left,391,Low
jou-cmand1DR-20201114,jo,4,360,15,7,Stop,Left,267,Left,333,Low
jou-cmand1DR-20201114,jo,4,361,15,8,Stop,Right,50,NoResponse,0,High
jou-cmand1DR-20201114,jo,4,362,15,9,Go,Right,0,Right,307,High
jou-cmand1DR-20201114,jo,4,363,15,10,Stop,Left,133,NoResponse,0,Low
jou-cmand1DR-20201114,jo,4,364,15,11,Go,Right,0,Right,257,High
jou-cmand1DR-20201114,jo,4,365,15,12,Go,Right,0,Right,236,High
jou-cmand1DR-20201114,jo,4,366,15,13,Go,Right,0,Right,219,High
jou-cmand1DR-20201114,jo,4,367,15,14,Stop,Right,267,Right,222,High
jou-cmand1DR-20201114,jo,4,368,15,15,Go,Left,0,Left,352,Low
jou-cmand1DR-20201114,jo,4,369,16,1,Go,Right,0,Right,271,Low
jou-cmand1DR-20201114,jo,4,370,16,2,Stop,Left,200,Left,255,High
jou-cmand1DR-20201114,jo,4,371,16,3,Go,Left,0,Left,281,High
jou-cmand1DR-20201114,jo,4,372,16,4,Go,Left,0,Left,224,High
jou-cmand1DR-20201114,jo,4,373,16,5,Go,Left,0,Left,232,High
jou-cmand1DR-20201114,jo,4,374,16,6,Stop,Left,50,NoResponse,0,High
jou-cmand1DR-20201114,jo,4,375,16,7,Stop,Right,267,Right,284,Low
jou-cmand1DR-20201114,jo,4,376,16,8,Go,Left,0,Left,237,High
jou-cmand1DR-20201114,jo,4,377,16,9,Go,Right,0,Right,276,Low
jou-cmand1DR-20201114,jo,4,378,16,10,Go,Left,0,NoStart,0,High
jou-cmand1DR-20201114,jo,4,379,16,11,Go,Left,0,Left,217,High
jou-cmand1DR-20201114,jo,4,380,16,12,Go,Right,0,Right,392,Low
jou-cmand1DR-20201114,jo,4,381,16,13,Stop,Right,200,NoResponse,0,Low
jou-cmand1DR-20201114,jo,4,382,16,14,Go,Right,0,Right,643,Low
jou-cmand1DR-20201114,jo,4,383,16,15,Go,Right,0,NoStart,0,Low
jou-cmand1DR-20201114,jo,4,384,16,16,Go,Left,0,Left,222,High
jou-cmand1DR-20201114,jo,4,385,16,17,Go,Right,0,Right,312,Low
jou-cmand1DR-20201114,jo,4,386,16,18,Go,Left,0,Left,242,High
jou-cmand1DR-20201114,jo,4,387,16,19,Go,Right,0,Right,440,Low
jou-cmand1DR-20201114,jo,4,388,16,20,Stop,Right,333,Right,302,Low
jou-cmand1DR-20201114,jo,4,389,16,21,Go,Left,0,Left,234,High
jou-cmand1DR-20201114,jo,4,390,16,22,Go,Left,0,Left,254,High
jou-cmand1DR-20201114,jo,4,391,17,1,Stop,Left,267,Left,236,Low
jou-cmand1DR-20201114,jo,4,392,17,2,Go,Left,0,Left,253,Low
jou-cmand1DR-20201114,jo,4,393,17,3,Stop,Left,50,NoStart,0,Low
jou-cmand1DR-20201114,jo,4,394,17,4,Stop,Left,50,NoStart,0,Low
jou-cmand1DR-20201114,jo,4,395,17,5,Stop,Right,50,NoStart,0,High
jou-cmand1DR-20201114,jo,4,396,17,6,Go,Left,0,Left,219,Low
jou-cmand1DR-20201114,jo,4,397,17,7,Stop,Left,50,NoResponse,0,Low
jou-cmand1DR-20201114,jo,4,398,17,8,Stop,Left,133,NoStart,0,Low
jou-cmand1DR-20201114,jo,4,399,17,9,Stop,Left,133,NoStart,0,Low
jou-cmand1DR-20201114,jo,4,400,17,10,Go,Left,0,Left,558,Low
jou-cmand1DR-20201114,jo,4,401,17,11,Stop,Left,133,NoStart,0,Low
jou-cmand1DR-20201114,jo,4,402,17,12,Go,Right,0,Right,242,High
jou-cmand1DR-20201114,jo,4,403,17,13,Stop,Right,133,NoResponse,0,High
jou-cmand1DR-20201114,jo,4,404,17,14,Stop,Right,267,Right,299,High
jou-cmand1DR-20201114,jo,4,405,17,15,Go,Left,0,Left,515,Low
jou-cmand1DR-20201114,jo,4,406,17,16,Go,Left,0,Left,345,Low
jou-cmand1DR-20201114,jo,4,407,17,17,Go,Left,0,Left,338,Low
jou-cmand1DR-20201114,jo,4,408,17,18,Stop,Right,200,Right,278,High
jou-cmand1DR-20201114,jo,4,409,17,19,Go,Right,0,Right,315,High
jou-cmand1DR-20201114,jo,4,410,17,20,Stop,Right,50,NoResponse,0,High
jou-cmand1DR-20201114,jo,4,411,17,21,Go,Right,0,Right,284,High
jou-cmand1DR-20201114,jo,4,412,18,1,Go,Left,0,Left,342,High
jou-cmand1DR-20201114,jo,4,413,18,2,Go,Left,0,Left,286,High
jou-cmand1DR-20201114,jo,4,414,18,3,Stop,Left,200,NoStart,0,High
jou-cmand1DR-20201114,jo,4,415,18,4,Go,Left,0,NoStart,0,High
jou-cmand1DR-20201114,jo,4,416,18,5,Go,Right,0,NoStart,0,Low
jou-cmand1DR-20201114,jo,4,417,18,6,Stop,Left,333,NoStart,0,High
jou-cmand1DR-20201114,jo,4,418,18,7,Go,Right,0,NoStart,0,Low
jou-cmand1DR-20201114,jo,4,419,18,8,Go,Left,0,NoStart,0,High
jou-cmand1DR-20201114,jo,4,420,18,9,Go,Left,0,NoStart,0,High
jou-cmand1DR-20201114,jo,4,421,18,10,Go,Left,0,NoStart,0,High
jou-cmand1DR-20201114,jo,4,422,18,11,Go,Left,0,NoStart,0,High
jou-cmand1DR-20201114,jo,4,423,18,12,Stop,Right,400,NoStart,0,Low
jou-cmand1DR-20201114,jo,4,424,18,13,Stop,Left,200,NoStart,0,High
jou-cmand1DR-20201114,jo,4,425,18,14,Go,Right,0,Right,238,Low
jou-cmand1DR-20201114,jo,4,426,18,15,Go,Left,0,Left,275,High
jou-cmand1DR-20201114,jo,4,427,18,16,Go,Right,0,Right,245,Low
jou-cmand1DR-20201114,jo,4,428,18,17,Go,Right,0,Right,292,Low
jou-cmand1DR-20201114,jo,4,429,18,18,Go,Left,0,Left,236,High
jou-cmand1DR-20201114,jo,4,430,18,19,Go,Right,0,Right,307,Low
jou-cmand1DR-20201114,jo,4,431,18,20,Stop,Right,50,NoResponse,0,Low
jou-cmand1DR-20201114,jo,4,432,18,21,Go,Right,0,Right,363,Low
jou-cmand1DR-20201114,jo,4,433,18,22,Stop,Right,267,Right,340,Low
jou-cmand1DR-20201114,jo,4,434,18,23,Go,Right,0,Right,288,Low
jou-cmand1DR-20201114,jo,4,435,18,24,Go,Right,0,Right,330,Low
jou-cmand1DR-20201114,jo,4,436,18,25,Go,Left,0,Left,246,High
jou-cmand1DR-20201114,jo,4,437,18,26,Go,Right,0,Right,482,Low
jou-cmand1DR-20201114,jo,4,438,18,27,Go,Left,0,Left,226,High
jou-cmand1DR-20201114,jo,4,439,18,28,Stop,Right,200,Right,270,Low
jou-cmand1DR-20201114,jo,4,440,18,29,Stop,Right,50,NoResponse,0,Low
jou-cmand1DR-20201114,jo,4,441,18,30,Stop,Right,200,NoResponse,0,Low
jou-cmand1DR-20201114,jo,4,442,18,31,Go,Left,0,Left,224,High
jou-cmand1DR-20201114,jo,4,443,18,32,Go,Left,0,Left,279,High
jou-cmand1DR-20201114,jo,4,444,19,1,Go,Right,0,Right,484,High
jou-cmand1DR-20201114,jo,4,445,19,2,Go,Right,0,NoStart,0,High
jou-cmand1DR-20201114,jo,4,446,19,3,Stop,Left,267,NoStart,0,Low
jou-cmand1DR-20201114,jo,4,447,19,4,Go,Right,0,NoStart,0,High
jou-cmand1DR-20201114,jo,4,448,19,5,Go,Left,0,NoStart,0,Low
jou-cmand1DR-20201114,jo,4,449,19,6,Stop,Right,333,NoStart,0,High
jou-cmand1DR-20201114,jo,4,450,19,7,Go,Right,0,NoStart,0,High
jou-cmand1DR-20201114,jo,4,451,19,8,Go,Left,0,NoStart,0,Low
jou-cmand1DR-20201114,jo,4,452,19,9,Go,Left,0,NoStart,0,Low
jou-cmand1DR-20201114,jo,4,453,19,10,Go,Right,0,NoStart,0,High
jou-cmand1DR-20201114,jo,4,454,19,11,Go,Left,0,NoStart,0,Low
jou-cmand1DR-20201114,jo,4,455,19,12,Stop,Left,483,NoStart,0,Low
jou-cmand1DR-20201114,jo,4,456,19,13,Go,Left,0,NoStart,0,Low
jou-cmand1DR-20201114,jo,4,457,19,14,Go,Right,0,NoStart,0,High
jou-cmand1DR-20201114,jo,4,458,19,15,Go,Right,0,NoStart,0,High
jou-cmand1DR-20201114,jo,4,459,19,16,Go,Left,0,NoStart,0,Low
jou-cmand1DR-20201114,jo,4,460,19,17,Stop,Left,483,NoStart,0,Low
jou-cmand1DR-20201114,jo,4,461,19,18,Stop,Right,483,NoStart,0,High
jou-cmand1DR-20201114,jo,4,462,19,19,Go,Right,0,Right,209,High
jou-cmand1DR-20201114,jo,4,463,19,20,Go,Left,0,Left,318,Low
jou-cmand1DR-20201114,jo,4,464,19,21,Go,Right,0,Right,231,High
jou-cmand1DR-20201114,jo,4,465,19,22,Stop,Left,483,Left,267,Low
jou-cmand1DR-20201114,jo,4,466,19,23,Go,Right,0,NoStart,0,High
jou-cmand1DR-20201114,jo,4,467,19,24,Stop,Left,267,NoStart,0,Low
jou-cmand1DR-20201114,jo,4,468,19,25,Go,Right,0,NoStart,0,High
jou-cmand1DR-20201114,jo,4,469,19,26,Go,Right,0,NoStart,0,High
jou-cmand1DR-20201114,jo,4,470,19,27,Go,Left,0,NoStart,0,Low
jou-cmand1DR-20201114,jo,4,471,19,28,Go,Right,0,NoStart,0,High
jou-cmand1DR-20201114,jo,4,472,19,29,Go,Right,0,Right,229,High
jou-cmand1DR-20201114,jo,4,473,19,30,Go,Left,0,Left,297,Low
jou-cmand1DR-20201114,jo,4,474,19,31,Stop,Right,133,NoResponse,0,High
jou-cmand1DR-20201114,jo,4,475,19,32,Stop,Left,200,NoResponse,0,Low
jou-cmand1DR-20201114,jo,4,476,19,33,Go,Right,0,Right,287,High
jou-cmand1DR-20201114,jo,4,477,19,34,Go,Left,0,Left,303,Low
jou-cmand1DR-20201114,jo,4,478,19,35,Stop,Left,267,NoResponse,0,Low
jou-cmand1DR-20201114,jo,4,479,19,36,Go,Right,0,Right,230,High
jou-cmand1DR-20201114,jo,4,480,19,37,Stop,Left,483,Left,472,Low
jou-cmand1DR-20201114,jo,4,481,19,38,Go,Right,0,Right,284,High
jou-cmand1DR-20201114,jo,4,482,19,39,Go,Right,0,Right,264,High
jou-cmand1DR-20201114,jo,4,483,19,40,Go,Right,0,Right,249,High
jou-cmand1DR-20201114,jo,4,484,19,41,Go,Left,0,Left,533,Low
jou-cmand1DR-20201114,jo,4,485,19,42,Go,Left,0,Left,323,Low
jou-cmand1DR-20201114,jo,4,486,19,43,Go,Left,0,Left,275,Low
jou-cmand1DR-20201114,jo,4,487,19,44,Stop,Left,267,Left,305,Low
jou-cmand1DR-20201114,jo,4,488,19,45,Stop,Left,50,NoStart,0,Low
jou-cmand1DR-20201114,jo,4,489,19,46,Go,Left,0,Left,278,Low
jou-cmand1DR-20201114,jo,4,490,19,47,Stop,Right,50,NoStart,0,High
jou-cmand1DR-20201114,jo,4,491,19,48,Stop,Right,50,NoResponse,0,High
jou-cmand1DR-20201114,jo,4,492,19,49,Go,Right,0,Right,431,High
jou-cmand1DR-20201114,jo,4,493,19,50,Go,Left,0,Left,425,Low
jou-cmand1DR-20201114,jo,4,494,19,51,Stop,Left,267,Left,292,Low
jou-cmand1DR-20201114,jo,4,495,19,52,Stop,Left,133,NoStart,0,Low
jou-cmand1DR-20201114,jo,4,496,19,53,Stop,Right,133,NoResponse,0,High
jou-cmand1DR-20201114,jo,4,497,19,54,Go,Left,0,Left,601,Low
jou-cmand1DR-20201114,jo,4,498,19,55,Go,Right,0,Right,298,High
jou-cmand1DR-20201114,jo,4,499,19,56,Stop,Left,333,Left,354,Low
jou-cmand1DR-20201114,jo,4,500,19,57,Go,Left,0,Left,406,Low
jou-cmand1DR-20201114,jo,4,501,20,1,Go,Left,0,Left,506,High
jou-cmand1DR-20201114,jo,4,502,20,2,Stop,Left,267,Left,226,High
jou-cmand1DR-20201114,jo,4,503,20,3,Go,Left,0,Left,236,High
jou-cmand1DR-20201114,jo,4,504,20,4,Go,Left,0,Left,277,High
jou-cmand1DR-20201114,jo,4,505,20,5,Go,Left,0,Left,234,High
jou-cmand1DR-20201114,jo,4,506,20,6,Go,Right,0,Right,330,Low
jou-cmand1DR-20201114,jo,4,507,20,7,Go,Right,0,Right,298,Low
jou-cmand1DR-20201114,jo,4,508,20,8,Stop,Left,200,Left,199,High
jou-cmand1DR-20201114,jo,4,509,20,9,Go,Left,0,Left,224,High
jou-cmand1DR-20201114,jo,4,510,20,10,Go,Right,0,Right,346,Low
jou-cmand1DR-20201114,jo,4,511,20,11,Go,Left,0,Left,241,High
jou-cmand1DR-20201114,jo,4,512,20,12,Go,Left,0,Left,220,High
jou-cmand1DR-20201114,jo,4,513,20,13,Go,Right,0,Right,350,Low
jou-cmand1DR-20201114,jo,4,514,21,1,Go,Right,0,Right,342,High
jou-cmand1DR-20201114,jo,4,515,21,2,Go,Right,0,Right,268,High
jou-cmand1DR-20201114,jo,4,516,21,3,Go,Left,0,Left,336,Low
jou-cmand1DR-20201114,jo,4,517,21,4,Go,Left,0,Left,276,Low
jou-cmand1DR-20201114,jo,4,518,21,5,Stop,Left,133,NoResponse,0,Low
jou-cmand1DR-20201114,jo,4,519,21,6,Stop,Right,333,Right,260,High
jou-cmand1DR-20201114,jo,4,520,21,7,Go,Right,0,Right,337,High
jou-cmand1DR-20201114,jo,4,521,21,8,Go,Right,0,Right,276,High
jou-cmand1DR-20201114,jo,4,522,21,9,Stop,Right,133,NoStart,0,High
jou-cmand1DR-20201114,jo,4,523,21,10,Go,Right,0,Right,366,High
jou-cmand1DR-20201114,jo,4,524,21,11,Go,Left,0,Left,327,Low
jou-cmand1DR-20201114,jo,4,525,21,12,Go,Left,0,Left,269,Low
jou-cmand1DR-20201114,jo,4,526,21,13,Go,Right,0,Right,283,High
jou-cmand1DR-20201114,jo,4,527,21,14,Go,Left,0,Left,246,Low
jou-cmand1DR-20201114,jo,4,528,21,15,Stop,Right,50,NoResponse,0,High
jou-cmand1DR-20201114,jo,4,529,21,16,Go,Right,0,Right,322,High
jou-cmand1DR-20201114,jo,4,530,21,17,Stop,Right,133,NoResponse,0,High
jou-cmand1DR-20201114,jo,4,531,21,18,Stop,Right,200,NoStart,0,High
jou-cmand1DR-20201114,jo,4,532,21,19,Go,Left,0,Left,420,Low
jou-cmand1DR-20201114,jo,4,533,21,20,Stop,Right,200,NoResponse,0,High
jou-cmand1DR-20201114,jo,4,534,21,21,Go,Right,0,Right,294,High
jou-cmand1DR-20201114,jo,4,535,22,1,Go,Right,0,Right,298,Low
jou-cmand1DR-20201114,jo,4,536,22,2,Go,Right,0,Right,427,Low
jou-cmand1DR-20201114,jo,4,537,22,3,Go,Right,0,Right,318,Low
jou-cmand1DR-20201114,jo,4,538,22,4,Go,Left,0,Left,256,High
jou-cmand1DR-20201114,jo,4,539,22,5,Stop,Right,267,NoResponse,0,Low
jou-cmand1DR-20201114,jo,4,540,22,6,Go,Left,0,Left,240,High
jou-cmand1DR-20201114,jo,4,541,22,7,Go,Right,0,NoStart,0,Low
jou-cmand1DR-20201114,jo,4,542,22,8,Stop,Right,483,Right,472,Low
jou-cmand1DR-20201114,jo,4,543,22,9,Go,Left,0,Left,239,High
jou-cmand1DR-20201114,jo,4,544,22,10,Stop,Right,333,NoResponse,0,Low
jou-cmand1DR-20201114,jo,4,545,22,11,Go,Left,0,Left,248,High
jou-cmand1DR-20201114,jo,4,546,22,12,Stop,Right,483,Right,369,Low
jou-cmand1DR-20201114,jo,4,547,22,13,Stop,Right,400,Right,422,Low
jou-cmand1DR-20201114,jo,4,548,22,14,Stop,Left,200,Left,235,High
jou-cmand1DR-20201114,jo,4,549,22,15,Go,Left,0,Left,248,High
jou-cmand1DR-20201114,jo,4,550,22,16,Go,Right,0,Right,302,Low
jou-cmand1DR-20201114,jo,4,551,22,17,Go,Left,0,Left,221,High
jou-cmand1DR-20201114,jo,4,552,22,18,Go,Left,0,Left,271,High
jou-cmand1DR-20201114,jo,4,553,22,19,Go,Left,0,Left,248,High
jou-cmand1DR-20201114,jo,4,554,22,20,Stop,Left,50,NoResponse,0,High
jou-cmand1DR-20201114,jo,4,555,22,21,Go,Left,0,Left,239,High
jou-cmand1DR-20201114,jo,4,556,22,22,Go,Left,0,Left,253,High
jou-cmand1DR-20201114,jo,4,557,22,23,Stop,Right,200,Right,264,Low
jou-cmand1DR-20201114,jo,4,558,22,24,Stop,Left,50,NoStart,0,High
jou-cmand1DR-20201114,jo,4,559,22,25,Stop,Left,50,NoResponse,0,High
jou-cmand1DR-20201114,jo,4,560,22,26,Stop,Right,267,NoStart,0,Low
jou-cmand1DR-20201114,jo,4,561,22,27,Go,Left,0,Left,237,High
jou-cmand1DR-20201114,jo,4,562,22,28,Go,Right,0,Right,413,Low
jou-cmand1DR-20201114,jo,4,563,22,29,Go,Left,0,Left,224,High
jou-cmand1DR-20201114,jo,4,564,22,30,Go,Left,0,Left,246,High
jou-cmand1DR-20201114,jo,4,565,22,31,Stop,Right,267,Right,314,Low
jou-cmand1DR-20201114,jo,4,566,22,32,Go,Right,0,Right,338,Low
jou-cmand1DR-20201114,jo,4,567,23,1,Go,Right,0,Right,311,High
jou-cmand1DR-20201114,jo,4,568,23,2,Go,Right,0,Right,279,High
jou-cmand1DR-20201114,jo,4,569,23,3,Go,Right,0,Right,260,High
jou-cmand1DR-20201114,jo,4,570,23,4,Go,Left,0,Left,314,Low
jou-cmand1DR-20201114,jo,4,571,23,5,Go,Left,0,NoStart,0,Low
jou-cmand1DR-20201114,jo,4,572,23,6,Go,Left,0,Left,420,Low
jou-cmand1DR-20201114,jo,4,573,23,7,Go,Right,0,Right,255,High
jou-cmand1DR-20201114,jo,4,574,23,8,Go,Left,0,Left,402,Low
jou-cmand1DR-20201114,jo,4,575,23,9,Go,Right,0,Right,445,High
jou-cmand1DR-20201114,jo,4,576,23,10,Stop,Left,50,NoResponse,0,Low
jou-cmand1DR-20201114,jo,4,577,23,11,Stop,Right,200,NoStart,0,High
jou-cmand1DR-20201114,jo,4,578,23,12,Go,Right,0,Right,313,High
jou-cmand1DR-20201114,jo,4,579,23,13,Go,Left,0,Left,295,Low
jou-cmand1DR-20201114,jo,4,580,23,14,Go,Left,0,Left,305,Low
jou-cmand1DR-20201114,jo,4,581,23,15,Go,Left,0,Left,339,Low
jou-cmand1DR-20201114,jo,4,582,23,16,Stop,Left,200,NoResponse,0,Low
jou-cmand1DR-20201114,jo,4,583,23,17,Go,Right,0,Right,239,High
jou-cmand1DR-20201114,jo,4,584,23,18,Go,Left,0,Left,358,Low
jou-cmand1DR-20201114,jo,4,585,23,19,Go,Left,0,Left,380,Low
jou-cmand1DR-20201114,jo,4,586,23,20,Go,Left,0,Left,307,Low
jou-cmand1DR-20201114,jo,4,587,23,21,Stop,Left,400,NoStart,0,Low
jou-cmand1DR-20201114,jo,4,588,23,22,Stop,Left,400,Left,375,Low
jou-cmand1DR-20201114,jo,4,589,23,23,Stop,Left,333,NoResponse,0,Low
jou-cmand1DR-20201114,jo,4,590,23,24,Stop,Left,483,Left,471,Low
jou-cmand1DR-20201114,jo,4,591,23,25,Go,Right,0,Right,252,High
jou-cmand1DR-20201114,jo,4,592,23,26,Go,Left,0,Left,306,Low
jou-cmand1DR-20201114,jo,4,593,24,1,Go,Right,0,Right,277,Low
jou-cmand1DR-20201114,jo,4,594,24,2,Go,Right,0,Right,492,Low
jou-cmand1DR-20201114,jo,4,595,24,3,Go,Left,0,Left,273,High
jou-cmand1DR-20201114,jo,4,596,24,4,Go,Right,0,Right,295,Low
jou-cmand1DR-20201114,jo,4,597,24,5,Stop,Right,400,NoResponse,0,Low
jou-cmand1DR-20201114,jo,4,598,24,6,Go,Left,0,Left,254,High
jou-cmand1DR-20201114,jo,4,599,24,7,Go,Right,0,Right,315,Low
jou-cmand1DR-20201114,jo,4,600,24,8,Go,Right,0,Right,278,Low
jou-cmand1DR-20201114,jo,4,601,24,9,Go,Right,0,Right,320,Low
jou-cmand1DR-20201114,jo,4,602,24,10,Go,Right,0,NoStart,0,Low
jou-cmand1DR-20201114,jo,4,603,24,11,Stop,Left,483,Left,244,High
jou-cmand1DR-20201114,jo,4,604,24,12,Go,Left,0,Left,235,High
jou-cmand1DR-20201114,jo,4,605,24,13,Go,Left,0,Left,242,High
jou-cmand1DR-20201114,jo,4,606,24,14,Stop,Left,400,Left,241,High
jou-cmand1DR-20201114,jo,4,607,24,15,Stop,Right,200,NoResponse,0,Low
jou-cmand1DR-20201114,jo,4,608,24,16,Go,Left,0,Left,246,High
jou-cmand1DR-20201114,jo,4,609,24,17,Go,Right,0,Right,384,Low
jou-cmand1DR-20201114,jo,4,610,24,18,Stop,Right,400,Right,418,Low
jou-cmand1DR-20201114,jo,4,611,24,19,Stop,Right,267,NoResponse,0,Low
jou-cmand1DR-20201114,jo,4,612,24,20,Stop,Left,483,Left,241,High
jou-cmand1DR-20201114,jo,4,613,24,21,Stop,Left,267,Left,223,High
jou-cmand1DR-20201114,jo,4,614,24,22,Go,Right,0,Right,306,Low
jou-cmand1DR-20201114,jo,4,615,24,23,Go,Left,0,Left,260,High
jou-cmand1DR-20201114,jo,4,616,24,24,Go,Right,0,Right,356,Low
jou-cmand1DR-20201114,jo,4,617,24,25,Go,Left,0,Left,236,High
jou-cmand1DR-20201114,jo,4,618,24,26,Go,Left,0,Left,242,High
jou-cmand1DR-20201114,jo,4,619,24,27,Go,Left,0,Left,248,High
jou-cmand1DR-20201114,jo,4,620,24,28,Stop,Right,50,NoResponse,0,Low
jou-cmand1DR-20201114,jo,4,621,24,29,Go,Left,0,Left,246,High
jou-cmand1DR-20201114,jo,4,622,24,30,Go,Left,0,Left,253,High
jou-cmand1DR-20201114,jo,4,623,24,31,Go,Left,0,Left,255,High
jou-cmand1DR-20201114,jo,4,624,24,32,Stop,Left,133,NoStart,0,High
jou-cmand1DR-20201114,jo,4,625,24,33,Go,Right,0,NoStart,0,Low
jou-cmand1DR-20201114,jo,4,626,24,34,Stop,Right,133,NoStart,0,Low
jou-cmand1DR-20201114,jo,4,627,24,35,Stop,Right,133,NoStart,0,Low
jou-cmand1DR-20201114,jo,4,628,24,36,Go,Left,0,Left,247,High
jou-cmand1DR-20201114,jo,4,629,24,37,Stop,Right,133,NoResponse,0,Low
jou-cmand1DR-20201114,jo,4,630,24,38,Go,Right,0,Right,463,Low
jou-cmand1DR-20201114,jo,4,631,24,39,Stop,Right,267,NoStart,0,Low
jou-cmand1DR-20201114,jo,4,632,24,40,Go,Right,0,NoStart,0,Low
jou-cmand1DR-20201114,jo,4,633,24,41,Go,Left,0,Left,226,High
jou-cmand1DR-20201114,jo,4,634,24,42,Go,Left,0,Left,257,High
jou-cmand1DR-20201114,jo,4,635,24,43,Stop,Left,333,Left,225,High
jou-cmand1DR-20201114,jo,4,636,24,44,Go,Left,0,Left,232,High
jou-cmand1DR-20201114,jo,4,637,25,1,Go,Right,0,NoStart,0,High
jou-cmand1DR-20201114,jo,4,638,25,2,Go,Right,0,Right,386,High
jou-cmand1DR-20201114,jo,4,639,25,3,Go,Right,0,Right,296,High
jou-cmand1DR-20201114,jo,4,640,25,4,Stop,Left,267,Left,296,Low
jou-cmand1DR-20201114,jo,4,641,25,5,Go,Left,0,NoStart,0,Low
jou-cmand1DR-20201114,jo,4,642,25,6,Go,Right,0,Right,264,High
jou-cmand1DR-20201114,jo,4,643,25,7,Go,Left,0,Left,395,Low
jou-cmand1DR-20201114,jo,4,644,25,8,Stop,Right,200,Right,242,High
jou-cmand1DR-20201114,jo,4,645,25,9,Stop,Left,50,NoResponse,0,Low
jou-cmand1DR-20201114,jo,4,646,25,10,Stop,Right,200,Right,254,High
jou-cmand1DR-20201114,jo,4,647,25,11,Go,Right,0,Right,281,High
jou-cmand1DR-20201114,jo,4,648,25,12,Stop,Right,50,NoStart,0,High
jou-cmand1DR-20201114,jo,4,649,25,13,Go,Left,0,Left,363,Low
jou-cmand1DR-20201114,jo,4,650,25,14,Go,Right,0,Right,281,High
jou-cmand1DR-20201114,jo,4,651,25,15,Go,Right,0,Right,289,High
jou-cmand1DR-20201114,jo,4,652,25,16,Stop,Right,50,NoStart,0,High
jou-cmand1DR-20201114,jo,4,653,25,17,Stop,Right,50,NoResponse,0,High
jou-cmand1DR-20201114,jo,4,654,25,18,Go,Right,0,Right,284,High
jou-cmand1DR-20201114,jo,4,655,25,19,Go,Right,0,Right,284,High
jou-cmand1DR-20201114,jo,4,656,25,20,Go,Right,0,Right,262,High
jou-cmand1DR-20201114,jo,4,657,25,21,Stop,Left,267,Left,350,Low
jou-cmand1DR-20201114,jo,4,658,25,22,Go,Left,0,NoStart,0,Low
jou-cmand1DR-20201114,jo,4,659,25,23,Stop,Left,400,Left,327,Low
jou-cmand1DR-20201114,jo,4,660,25,24,Stop,Left,400,Left,299,Low
jou-cmand1DR-20201114,jo,4,661,25,25,Go,Left,0,Left,422,Low
jou-cmand1DR-20201114,jo,4,662,25,26,Stop,Left,333,Left,325,Low
jou-cmand1DR-20201114,jo,4,663,25,27,Go,Right,0,Right,275,High
jou-cmand1DR-20201114,jo,4,664,25,28,Go,Left,0,Left,346,Low
jou-cmand1DR-20201114,jo,4,665,25,29,Go,Left,0,Left,297,Low
jou-cmand1DR-20201114,jo,4,666,25,30,Go,Left,0,NoStart,0,Low
jou-cmand1DR-20201114,jo,4,667,25,31,Stop,Right,267,Right,231,High
jou-cmand1DR-20201114,jo,4,668,25,32,Go,Left,0,NoStart,0,Low
jou-cmand1DR-20201114,jo,4,669,25,33,Stop,Right,50,NoStart,0,High
jou-cmand1DR-20201114,jo,4,670,25,34,Go,Left,0,NoStart,0,Low
jou-cmand1DR-20201114,jo,4,671,25,35,Go,Right,0,Right,272,High
jou-cmand1DR-20201114,jo,4,672,25,36,Go,Right,0,Right,261,High
jou-cmand1DR-20201114,jo,4,673,25,37,Go,Right,0,Right,266,High
jou-cmand1DR-20201114,jo,4,674,25,38,Stop,Left,50,NoStart,0,Low
jou-cmand1DR-20201114,jo,4,675,25,39,Go,Right,0,NoStart,0,High
jou-cmand1DR-20201114,jo,4,676,25,40,Go,Left,0,NoStart,0,Low
jou-cmand1DR-20201114,jo,4,677,25,41,Go,Right,0,NoStart,0,High
jou-cmand1DR-20201114,jo,4,678,25,42,Go,Right,0,NoStart,0,High
jou-cmand1DR-20201114,jo,4,679,25,43,Stop,Left,50,NoResponse,0,Low
jou-cmand1DR-20201114,jo,4,680,25,44,Go,Right,0,Right,220,High
jou-cmand1DR-20201114,jo,4,681,25,45,Go,Left,0,NoStart,0,Low
jou-cmand1DR-20201114,jo,4,682,25,46,Go,Left,0,NoStart,0,Low
jou-cmand1DR-20201114,jo,4,683,25,47,Go,Left,0,NoStart,0,Low
jou-cmand1DR-20201114,jo,4,684,25,48,Go,Left,0,NoStart,0,Low
jou-cmand1DR-20201114,jo,4,685,25,49,Stop,Left,200,NoResponse,0,Low
jou-cmand1DR-20201114,jo,4,686,25,50,Go,Right,0,Right,233,High
jou-cmand1DR-20201114,jo,4,687,25,51,Go,Left,0,NoStart,0,Low
jou-cmand1DR-20201114,jo,4,688,25,52,Stop,Left,267,NoStart,0,Low
jou-cmand1DR-20201114,jo,4,689,25,53,Go,Right,0,NoStart,0,High
jou-cmand1DR-20201114,jo,4,690,25,54,Stop,Left,400,Left,284,Low
jou-cmand1DR-20201114,jo,4,691,25,55,Stop,Right,200,NoResponse,0,High
jou-cmand1DR-20201114,jo,4,692,25,56,Stop,Left,267,NoResponse,0,Low
jou-cmand1DR-20201114,jo,4,693,25,57,Go,Left,0,NoStart,0,Low
jou-cmand1DR-20201114,jo,4,694,25,58,Stop,Left,333,NoStart,0,Low
jou-cmand1DR-20201114,jo,4,695,25,59,Go,Right,0,NoStart,0,High
jou-cmand1DR-20201114,jo,4,696,25,60,Go,Right,0,NoStart,0,High
jou-cmand1DR-20201114,jo,4,697,25,61,Go,Right,0,NoStart,0,High
jou-cmand1DR-20201114,jo,4,698,25,62,Go,Left,0,NoStart,0,Low
jou-cmand1DR-20201114,jo,4,699,25,63,Stop,Right,483,Right,246,High
jou-cmand1DR-20201114,jo,4,700,25,64,Go,Right,0,Right,453,High
jou-cmand1DR-20201114,jo,4,701,25,65,Go,Right,0,NoStart,0,High
jou-cmand1DR-20201114,jo,4,702,25,66,Stop,Right,267,Right,309,High
jou-cmand1DR-20201114,jo,4,703,25,67,Stop,Right,50,NoResponse,0,High
jou-cmand1DR-20201114,jo,4,704,25,68,Go,Left,0,Left,252,Low
jou-cmand1DR-20201114,jo,4,705,25,69,Go,Right,0,NoStart,0,High
jou-cmand1DR-20201114,jo,4,706,25,70,Go,Right,0,NoStart,0,High
jou-cmand1DR-20201114,jo,4,707,25,71,Go,Right,0,Right,337,High
jou-cmand1DR-20201114,jo,4,708,26,1,Go,Right,0,Right,351,Low
jou-cmand1DR-20201114,jo,4,709,26,2,Stop,Left,200,Left,238,High
jou-cmand1DR-20201114,jo,4,710,26,3,Go,Left,0,Left,281,High
jou-cmand1DR-20201114,jo,4,711,26,4,Go,Right,0,Right,381,Low
jou-cmand1DR-20201114,jo,4,712,26,5,Stop,Right,50,NoResponse,0,Low
jou-cmand1DR-20201114,jo,4,713,26,6,Go,Right,0,Right,493,Low
jou-cmand1DR-20201114,jo,4,714,26,7,Go,Right,0,Right,349,Low
jou-cmand1DR-20201114,jo,4,715,26,8,Go,Left,0,Left,226,High
jou-cmand1DR-20201114,jo,4,716,26,9,Stop,Left,483,Left,260,High
jou-cmand1DR-20201114,jo,4,717,26,10,Go,Right,0,Right,349,Low
jou-cmand1DR-20201114,jo,4,718,26,11,Go,Right,0,NoStart,0,Low
jou-cmand1DR-20201114,jo,4,719,26,12,Go,Left,0,Left,207,High
jou-cmand1DR-20201114,jo,4,720,26,13,Stop,Left,267,Left,244,High
jou-cmand1DR-20201114,jo,4,721,26,14,Go,Right,0,Right,316,Low
jou-cmand1DR-20201114,jo,4,722,26,15,Go,Left,0,Left,262,High
jou-cmand1DR-20201114,jo,4,723,26,16,Stop,Left,133,NoResponse,0,High
jou-cmand1DR-20201114,jo,4,724,26,17,Stop,Left,333,Left,292,High
jou-cmand1DR-20201114,jo,4,725,26,18,Go,Right,0,Right,483,Low
jou-cmand1DR-20201114,jo,4,726,26,19,Stop,Right,133,NoResponse,0,Low
jou-cmand1DR-20201114,jo,4,727,26,20,Go,Right,0,Right,270,Low
jou-cmand1DR-20201114,jo,4,728,26,21,Stop,Left,267,NoStart,0,High
jou-cmand1DR-20201114,jo,4,729,26,22,Go,Right,0,NoStart,0,Low
jou-cmand1DR-20201114,jo,4,730,26,23,Go,Right,0,Right,503,Low
jou-cmand1DR-20201114,jo,4,731,26,24,Go,Right,0,Right,331,Low
jou-cmand1DR-20201114,jo,4,732,26,25,Go,Left,0,Left,227,High
jou-cmand1DR-20201114,jo,4,733,26,26,Go,Left,0,Left,313,High
jou-cmand1DR-20201114,jo,4,734,27,1,Go,Left,0,Left,260,Low
jou-cmand1DR-20201114,jo,4,735,27,2,Stop,Left,400,Left,359,Low
jou-cmand1DR-20201114,jo,4,736,27,3,Go,Right,0,Right,412,High
jou-cmand1DR-20201114,jo,4,737,27,4,Go,Left,0,Left,283,Low
jou-cmand1DR-20201114,jo,4,738,27,5,Stop,Right,267,NoResponse,0,High
jou-cmand1DR-20201114,jo,4,739,27,6,Go,Right,0,Right,379,High
jou-cmand1DR-20201114,jo,4,740,27,7,Go,Right,0,Right,328,High
jou-cmand1DR-20201114,jo,4,741,27,8,Stop,Right,400,Right,322,High
jou-cmand1DR-20201114,jo,4,742,27,9,Go,Right,0,NoStart,0,High
jou-cmand1DR-20201114,jo,4,743,27,10,Go,Left,0,NoStart,0,Low
jou-cmand1DR-20201114,jo,4,744,27,11,Go,Left,0,Left,424,Low
jou-cmand1DR-20201114,jo,4,745,27,12,Stop,Right,267,Right,346,High
jou-cmand1DR-20201114,jo,4,746,27,13,Go,Left,0,Left,419,Low
jou-cmand1DR-20201114,jo,4,747,27,14,Go,Left,0,NoStart,0,Low
jou-cmand1DR-20201114,jo,4,748,27,15,Stop,Left,267,NoResponse,0,Low
jou-cmand1DR-20201114,jo,4,749,27,16,Go,Left,0,NoStart,0,Low
jou-cmand1DR-20201114,jo,4,750,27,17,Go,Left,0,NoStart,0,Low
jou-cmand1DR-20201114,jo,4,751,27,18,Stop,Left,400,NoStart,0,Low
jou-cmand1DR-20201114,jo,4,752,27,19,Go,Right,0,Right,277,High
jou-cmand1DR-20201114,jo,4,753,27,20,Go,Left,0,NoStart,0,Low
jou-cmand1DR-20201114,jo,4,754,27,21,Go,Right,0,Right,261,High
jou-cmand1DR-20201114,jo,4,755,27,22,Go,Right,0,Right,271,High
jou-cmand1DR-20201114,jo,4,756,27,23,Go,Left,0,Left,323,Low
jou-cmand1DR-20201114,jo,4,757,27,24,Stop,Left,483,Left,350,Low
jou-cmand1DR-20201114,jo,4,758,27,25,Stop,Left,267,NoStart,0,Low
jou-cmand1DR-20201114,jo,4,759,27,26,Go,Right,0,Right,311,High
jou-cmand1DR-20201114,jo,4,760,28,1,Stop,Left,200,NoResponse,0,High
jou-cmand1DR-20201114,jo,4,761,28,2,Stop,Left,400,Left,389,High
jou-cmand1DR-20201114,jo,4,762,28,3,Go,Right,0,Right,291,Low
jou-cmand1DR-20201114,jo,4,763,28,4,Stop,Left,267,Left,333,High
jou-cmand1DR-20201114,jo,4,764,28,5,Go,Right,0,Right,426,Low
jou-cmand1DR-20201114,jo,4,765,28,6,Stop,Right,133,NoStart,0,Low
jou-cmand1DR-20201114,jo,4,766,28,7,Go,Left,0,Left,288,High
jou-cmand1DR-20201114,jo,4,767,28,8,Go,Right,0,Right,474,Low
jou-cmand1DR-20201114,jo,4,768,28,9,Go,Left,0,Left,269,High
jou-cmand1DR-20201114,jo,4,769,28,10,Go,Left,0,Left,251,High
jou-cmand1DR-20201114,jo,4,770,28,11,Go,Right,0,Right,354,Low
jou-cmand1DR-20201114,jo,4,771,28,12,Go,Right,0,Right,433,Low
jou-cmand1DR-20201114,jo,4,772,28,13,Go,Right,0,Right,290,Low
jou-cmand1DR-20201114,jo,4,773,28,14,Stop,Left,400,Left,203,High
jou-cmand1DR-20201114,jo,4,774,28,15,Go,Right,0,Right,353,Low
jou-cmand1DR-20201114,jo,4,775,28,16,Go,Right,0,Right,292,Low
jou-cmand1DR-20201114,jo,4,776,28,17,Go,Left,0,Left,251,High
jou-cmand1DR-20201114,jo,4,777,28,18,Go,Right,0,NoStart,0,Low
jou-cmand1DR-20201114,jo,4,778,28,19,Stop,Right,200,NoResponse,0,Low
jou-cmand1DR-20201114,jo,4,779,28,20,Go,Left,0,NoStart,0,High
jou-cmand1DR-20201114,jo,4,780,28,21,Go,Right,0,NoStart,0,Low
jou-cmand1DR-20201114,jo,4,781,28,22,Go,Left,0,NoStart,0,High
jou-cmand1DR-20201114,jo,4,782,28,23,Go,Right,0,Right,451,Low
jou-cmand1DR-20201114,jo,4,783,28,24,Go,Left,0,Left,238,High
jou-cmand1DR-20201114,jo,4,784,28,25,Stop,Left,400,Left,242,High
jou-cmand1DR-20201114,jo,4,785,28,26,Go,Right,0,Right,321,Low
jou-cmand1DR-20201114,jo,4,786,28,27,Go,Left,0,Left,266,High
jou-cmand1DR-20201114,jo,4,787,28,28,Stop,Left,267,Left,222,High
jou-cmand1DR-20201114,jo,4,788,28,29,Go,Left,0,Left,220,High
jou-cmand1DR-20201114,jo,4,789,28,30,Go,Right,0,NoStart,0,Low
jou-cmand1DR-20201114,jo,4,790,28,31,Stop,Left,50,NoStart,0,High
jou-cmand1DR-20201114,jo,4,791,28,32,Go,Right,0,NoStart,0,Low
jou-cmand1DR-20201114,jo,4,792,28,33,Stop,Right,50,NoStart,0,Low
jou-cmand1DR-20201114,jo,4,793,28,34,Go,Right,0,NoStart,0,Low
jou-cmand1DR-20201114,jo,4,794,28,35,Go,Right,0,NoStart,0,Low
jou-cmand1DR-20201114,jo,4,795,28,36,Go,Right,0,NoStart,0,Low
jou-cmand1DR-20201114,jo,4,796,28,37,Go,Left,0,Left,227,High
jou-cmand1DR-20201114,jo,4,797,28,38,Go,Right,0,Right,605,Low
jou-cmand1DR-20201114,jo,4,798,28,39,Go,Left,0,Left,251,High
jou-cmand1DR-20201114,jo,4,799,29,1,Go,Right,0,Right,260,High
jou-cmand1DR-20201114,jo,4,800,29,2,Stop,Left,50,NoStart,0,Low
jou-cmand1DR-20201114,jo,4,801,29,3,Stop,Right,50,NoResponse,0,High
jou-cmand1DR-20201114,jo,4,802,29,4,Go,Right,0,Right,317,High
jou-cmand1DR-20201114,jo,4,803,29,5,Go,Right,0,Right,320,High
jou-cmand1DR-20201114,jo,4,804,29,6,Go,Left,0,Left,350,Low
jou-cmand1DR-20201114,jo,4,805,29,7,Go,Left,0,Left,462,Low
jou-cmand1DR-20201114,jo,4,806,29,8,Go,Right,0,Right,257,High
jou-cmand1DR-20201114,jo,4,807,29,9,Go,Right,0,Right,284,High
jou-cmand1DR-20201114,jo,4,808,29,10,Stop,Right,200,Right,262,High
jou-cmand1DR-20201114,jo,4,809,29,11,Stop,Left,50,NoResponse,0,Low
jou-cmand1DR-20201114,jo,4,810,29,12,Go,Right,0,NoStart,0,High
jou-cmand1DR-20201114,jo,4,811,29,13,Go,Right,0,Right,264,High
jou-cmand1DR-20201114,jo,4,812,29,14,Go,Right,0,Right,290,High
jou-cmand1DR-20201114,jo,4,813,29,15,Go,Left,0,Left,452,Low
jou-cmand1DR-20201114,jo,4,814,29,16,Go,Right,0,Right,283,High
jou-cmand1DR-20201114,jo,4,815,29,17,Go,Left,0,Left,366,Low
jou-cmand1DR-20201114,jo,4,816,29,18,Go,Right,0,Right,260,High
jou-cmand1DR-20201114,jo,4,817,29,19,Go,Left,0,Left,403,Low
jou-cmand1DR-20201114,jo,4,818,29,20,Go,Left,0,Left,363,Low
jou-cmand1DR-20201114,jo,4,819,29,21,Go,Left,0,Left,335,Low
jou-cmand1DR-20201114,jo,4,820,29,22,Stop,Right,133,NoStart,0,High
jou-cmand1DR-20201114,jo,4,821,29,23,Go,Right,0,Right,283,High
jou-cmand1DR-20201114,jo,4,822,29,24,Stop,Left,133,NoResponse,0,Low
jou-cmand1DR-20201114,jo,4,823,29,25,Go,Right,0,Right,234,High
jou-cmand1DR-20201114,jo,4,824,29,26,Stop,Right,200,Right,256,High
jou-cmand1DR-20201114,jo,4,825,29,27,Go,Right,0,Right,240,High
jou-cmand1DR-20201114,jo,4,826,29,28,Stop,Left,50,NoResponse,0,Low
jou-cmand1DR-20201114,jo,4,827,29,29,Stop,Left,267,NoResponse,0,Low
jou-cmand1DR-20201114,jo,4,828,30,1,Go,Right,0,Right,222,Low
jou-cmand1DR-20201114,jo,4,829,30,2,Go,Right,0,Right,432,Low
jou-cmand1DR-20201114,jo,4,830,30,3,Go,Left,0,Left,259,High
jou-cmand1DR-20201114,jo,4,831,30,4,Go,Right,0,Right,352,Low
jou-cmand1DR-20201114,jo,4,832,30,5,Stop,Right,333,NoStart,0,Low
jou-cmand1DR-20201114,jo,4,833,30,6,Go,Left,0,Left,248,High
jou-cmand1DR-20201114,jo,4,834,30,7,Go,Right,0,Right,568,Low
jou-cmand1DR-20201114,jo,4,835,30,8,Go,Right,0,Right,421,Low
jou-cmand1DR-20201114,jo,4,836,30,9,Go,Right,0,Right,474,Low
jou-cmand1DR-20201114,jo,4,837,30,10,Go,Left,0,NoStart,0,High
jou-cmand1DR-20201114,jo,4,838,30,11,Go,Left,0,Left,277,High
jou-cmand1DR-20201114,jo,4,839,30,12,Go,Right,0,Right,529,Low
jou-cmand1DR-20201114,jo,4,840,30,13,Go,Left,0,Left,211,High
jou-cmand1DR-20201114,jo,4,841,30,14,Stop,Left,333,Left,270,High
jou-cmand1DR-20201114,jo,4,842,30,15,Stop,Left,267,Left,226,High
jou-cmand1DR-20201114,jo,4,843,30,16,Stop,Right,50,NoResponse,0,Low
jou-cmand1DR-20201114,jo,4,844,30,17,Go,Left,0,Left,247,High
jou-cmand1DR-20201114,jo,4,845,30,18,Go,Right,0,Right,384,Low
jou-cmand1DR-20201114,jo,4,846,30,19,Go,Left,0,Left,240,High
jou-cmand1DR-20201114,jo,4,847,30,20,Go,Left,0,Left,244,High
jou-cmand1DR-20201114,jo,4,848,30,21,Go,Right,0,Right,492,Low
jou-cmand1DR-20201114,jo,4,849,30,22,Go,Left,0,Left,223,High
jou-cmand1DR-20201114,jo,4,850,30,23,Stop,Left,483,Left,212,High
jou-cmand1DR-20201114,jo,4,851,30,24,Go,Right,0,Right,495,Low
jou-cmand1DR-20201114,jo,4,852,30,25,Go,Left,0,Left,255,High
jou-cmand1DR-20201114,jo,4,853,30,26,Go,Left,0,Left,223,High
jou-cmand1DR-20201114,jo,4,854,30,27,Go,Left,0,Left,251,High
jou-cmand1DR-20201114,jo,4,855,30,28,Go,Left,0,Left,257,High
jou-cmand1DR-20201114,jo,4,856,30,29,Stop,Left,133,Left,372,High
jou-cmand1DR-20201114,jo,4,857,30,30,Stop,Right,50,NoResponse,0,Low
jou-cmand1DR-20201114,jo,4,858,30,31,Stop,Right,200,NoStart,0,Low
jou-cmand1DR-20201114,jo,4,859,30,32,Stop,Right,200,NoResponse,0,Low
jou-cmand1DR-20201114,jo,4,860,30,33,Stop,Left,267,Left,251,High
jou-cmand1DR-20201114,jo,4,861,30,34,Go,Right,0,Right,303,Low
