sessionName,monkeyName,sessionN,trial,block,blocktrial,trialType,targetLoc,ssd,response,rt,value
jou-cmand1DR-20201116,jo,5,1,1,1,Go,Right,0,NoStart,0,High
jou-cmand1DR-20201116,jo,5,2,1,2,Stop,Right,200,NoStart,0,High
jou-cmand1DR-20201116,jo,5,3,1,3,Stop,Right,333,NoStart,0,High
jou-cmand1DR-20201116,jo,5,4,1,4,Go,Right,0,NoStart,0,High
jou-cmand1DR-20201116,jo,5,5,1,5,Stop,Right,50,NoStart,0,High
jou-cmand1DR-20201116,jo,5,6,1,6,Go,Right,0,NoStart,0,High
jou-cmand1DR-20201116,jo,5,7,1,7,Stop,Left,267,NoStart,0,Low
jou-cmand1DR-20201116,jo,5,8,1,8,Go,Right,0,NoStart,0,High
jou-cmand1DR-20201116,jo,5,9,1,9,Go,Right,0,NoStart,0,High
jou-cmand1DR-20201116,jo,5,10,1,10,Stop,Left,200,Left,185,Low
jou-cmand1DR-20201116,jo,5,11,1,11,Go,Left,0,Left,320,Low
jou-cmand1DR-20201116,jo,5,12,1,12,Go,Left,0,Left,341,Low
jou-cmand1DR-20201116,jo,5,13,1,13,Go,Left,0,NoStart,0,Low
jou-cmand1DR-20201116,jo,5,14,1,14,Go,Left,0,NoStart,0,Low
jou-cmand1DR-20201116,jo,5,15,1,15,Stop,Left,133,NoStart,0,Low
jou-cmand1DR-20201116,jo,5,16,1,16,Go,Left,0,NoStart,0,Low
jou-cmand1DR-20201116,jo,5,17,1,17,Go,Left,0,NoStart,0,Low
jou-cmand1DR-20201116,jo,5,18,1,18,Stop,Right,50,NoStart,0,High
jou-cmand1DR-20201116,jo,5,19,1,19,Go,Right,0,Right,366,High
jou-cmand1DR-20201116,jo,5,20,1,20,Stop,Right,50,NoResponse,0,High
jou-cmand1DR-20201116,jo,5,21,1,21,Stop,Right,200,NoStart,0,High
jou-cmand1DR-20201116,jo,5,22,1,22,Go,Right,0,Right,421,High
jou-cmand1DR-20201116,jo,5,23,1,23,Go,Right,0,Right,197,High
jou-cmand1DR-20201116,jo,5,24,1,24,Stop,Left,200,Left,267,Low
jou-cmand1DR-20201116,jo,5,25,1,25,Go,Right,0,Right,214,High
jou-cmand1DR-20201116,jo,5,26,1,26,Go,Left,0,Left,318,Low
jou-cmand1DR-20201116,jo,5,27,1,27,Go,Right,0,Right,225,High
jou-cmand1DR-20201116,jo,5,28,1,28,Stop,Right,50,NoStart,0,High
jou-cmand1DR-20201116,jo,5,29,1,29,Go,Right,0,Right,239,High
jou-cmand1DR-20201116,jo,5,30,1,30,Go,Left,0,Left,296,Low
jou-cmand1DR-20201116,jo,5,31,1,31,Go,Right,0,Right,235,High
jou-cmand1DR-20201116,jo,5,32,1,32,Go,Left,0,Left,438,Low
jou-cmand1DR-20201116,jo,5,33,1,33,Go,Left,0,Left,433,Low
jou-cmand1DR-20201116,jo,5,34,1,34,Go,Left,0,Left,383,Low
jou-cmand1DR-20201116,jo,5,35,1,35,Stop,Right,400,Right,190,High
jou-cmand1DR-20201116,jo,5,36,1,36,Go,Left,0,Left,299,Low
jou-cmand1DR-20201116,jo,5,37,1,37,Stop,Right,267,Right,197,High
jou-cmand1DR-20201116,jo,5,38,1,38,Go,Right,0,Right,319,High
jou-cmand1DR-20201116,jo,5,39,1,39,Stop,Left,200,NoResponse,0,Low
jou-cmand1DR-20201116,jo,5,40,1,40,Go,Left,0,Left,342,Low
jou-cmand1DR-20201116,jo,5,41,1,41,Stop,Right,267,Right,259,High
jou-cmand1DR-20201116,jo,5,42,1,42,Stop,Right,133,NoResponse,0,High
jou-cmand1DR-20201116,jo,5,43,1,43,Go,Right,0,Right,238,High
jou-cmand1DR-20201116,jo,5,44,1,44,Stop,Right,333,Right,254,High
jou-cmand1DR-20201116,jo,5,45,1,45,Go,Left,0,Left,359,Low
jou-cmand1DR-20201116,jo,5,46,2,1,Stop,Right,200,Right,226,Low
jou-cmand1DR-20201116,jo,5,47,2,2,Go,Left,0,Left,324,High
jou-cmand1DR-20201116,jo,5,48,2,3,Go,Left,0,Left,202,High
jou-cmand1DR-20201116,jo,5,49,2,4,Go,Left,0,Left,204,High
jou-cmand1DR-20201116,jo,5,50,2,5,Go,Right,0,Right,318,Low
jou-cmand1DR-20201116,jo,5,51,2,6,Stop,Right,133,NoResponse,0,Low
jou-cmand1DR-20201116,jo,5,52,2,7,Go,Right,0,Right,335,Low
jou-cmand1DR-20201116,jo,5,53,2,8,Go,Right,0,Right,360,Low
jou-cmand1DR-20201116,jo,5,54,2,9,Stop,Left,267,Left,221,High
jou-cmand1DR-20201116,jo,5,55,2,10,Stop,Left,133,NoResponse,0,High
jou-cmand1DR-20201116,jo,5,56,2,11,Go,Right,0,Right,387,Low
jou-cmand1DR-20201116,jo,5,57,2,12,Stop,Left,267,Left,233,High
jou-cmand1DR-20201116,jo,5,58,2,13,Stop,Left,133,NoResponse,0,High
jou-cmand1DR-20201116,jo,5,59,2,14,Go,Right,0,Right,496,Low
jou-cmand1DR-20201116,jo,5,60,2,15,Go,Left,0,Left,191,High
jou-cmand1DR-20201116,jo,5,61,2,16,Go,Right,0,Right,328,Low
jou-cmand1DR-20201116,jo,5,62,2,17,Stop,Left,333,Left,196,High
jou-cmand1DR-20201116,jo,5,63,2,18,Go,Left,0,Left,231,High
jou-cmand1DR-20201116,jo,5,64,2,19,Go,Left,0,Left,227,High
jou-cmand1DR-20201116,jo,5,65,2,20,Stop,Right,267,Right,292,Low
jou-cmand1DR-20201116,jo,5,66,2,21,Go,Right,0,Right,303,Low
jou-cmand1DR-20201116,jo,5,67,2,22,Go,Right,0,Right,274,Low
jou-cmand1DR-20201116,jo,5,68,2,23,Go,Left,0,NoStart,0,High
jou-cmand1DR-20201116,jo,5,69,2,24,Go,Right,0,Right,219,Low
jou-cmand1DR-20201116,jo,5,70,2,25,Go,Left,0,Left,183,High
jou-cmand1DR-20201116,jo,5,71,2,26,Go,Right,0,Right,269,Low
jou-cmand1DR-20201116,jo,5,72,2,27,Go,Left,0,Left,218,High
jou-cmand1DR-20201116,jo,5,73,2,28,Go,Left,0,Left,250,High
jou-cmand1DR-20201116,jo,5,74,2,29,Stop,Left,133,NoResponse,0,High
jou-cmand1DR-20201116,jo,5,75,2,30,Go,Left,0,Left,229,High
jou-cmand1DR-20201116,jo,5,76,2,31,Go,Left,0,Left,245,High
jou-cmand1DR-20201116,jo,5,77,2,32,Stop,Left,333,Left,219,High
jou-cmand1DR-20201116,jo,5,78,2,33,Stop,Right,200,NoStart,0,Low
jou-cmand1DR-20201116,jo,5,79,2,34,Stop,Right,200,NoResponse,0,Low
jou-cmand1DR-20201116,jo,5,80,2,35,Stop,Left,333,Left,240,High
jou-cmand1DR-20201116,jo,5,81,2,36,Stop,Left,200,Left,238,High
jou-cmand1DR-20201116,jo,5,82,2,37,Go,Right,0,Right,340,Low
jou-cmand1DR-20201116,jo,5,83,2,38,Stop,Left,50,NoResponse,0,High
jou-cmand1DR-20201116,jo,5,84,3,1,Go,Right,0,Right,436,High
jou-cmand1DR-20201116,jo,5,85,3,2,Go,Right,0,Right,228,High
jou-cmand1DR-20201116,jo,5,86,3,3,Go,Left,0,Left,321,Low
jou-cmand1DR-20201116,jo,5,87,3,4,Go,Right,0,Right,240,High
jou-cmand1DR-20201116,jo,5,88,3,5,Go,Left,0,NoStart,0,Low
jou-cmand1DR-20201116,jo,5,89,3,6,Stop,Left,133,NoResponse,0,Low
jou-cmand1DR-20201116,jo,5,90,3,7,Stop,Left,200,NoResponse,0,Low
jou-cmand1DR-20201116,jo,5,91,3,8,Go,Right,0,Right,225,High
jou-cmand1DR-20201116,jo,5,92,3,9,Go,Left,0,NoStart,0,Low
jou-cmand1DR-20201116,jo,5,93,3,10,Go,Left,0,NoStart,0,Low
jou-cmand1DR-20201116,jo,5,94,3,11,Stop,Left,200,NoResponse,0,Low
jou-cmand1DR-20201116,jo,5,95,3,12,Go,Left,0,Left,303,Low
jou-cmand1DR-20201116,jo,5,96,3,13,Stop,Right,333,Right,251,High
jou-cmand1DR-20201116,jo,5,97,3,14,Stop,Right,267,NoStart,0,High
jou-cmand1DR-20201116,jo,5,98,3,15,Stop,Right,133,NoResponse,0,High
jou-cmand1DR-20201116,jo,5,99,3,16,Go,Left,0,Left,383,Low
jou-cmand1DR-20201116,jo,5,100,3,17,Stop,Left,267,Left,296,Low
jou-cmand1DR-20201116,jo,5,101,3,18,Go,Left,0,Left,317,Low
jou-cmand1DR-20201116,jo,5,102,3,19,Stop,Left,50,NoResponse,0,Low
jou-cmand1DR-20201116,jo,5,103,3,20,Go,Right,0,Right,228,High
jou-cmand1DR-20201116,jo,5,104,3,21,Stop,Right,200,Right,257,High
jou-cmand1DR-20201116,jo,5,105,3,22,Go,Right,0,Right,271,High
jou-cmand1DR-20201116,jo,5,106,3,23,Go,Left,0,Left,305,Low
jou-cmand1DR-20201116,jo,5,107,3,24,Stop,Left,133,NoStart,0,Low
jou-cmand1DR-20201116,jo,5,108,3,25,Stop,Left,50,NoStart,0,Low
jou-cmand1DR-20201116,jo,5,109,3,26,Stop,Right,50,NoStart,0,High
jou-cmand1DR-20201116,jo,5,110,3,27,Go,Left,0,NoStart,0,Low
jou-cmand1DR-20201116,jo,5,111,3,28,Go,Left,0,NoStart,0,Low
jou-cmand1DR-20201116,jo,5,112,3,29,Stop,Right,50,NoStart,0,High
jou-cmand1DR-20201116,jo,5,113,3,30,Go,Right,0,NoStart,0,High
jou-cmand1DR-20201116,jo,5,114,3,31,Stop,Right,50,NoStart,0,High
jou-cmand1DR-20201116,jo,5,115,3,32,Go,Left,0,NoStart,0,Low
jou-cmand1DR-20201116,jo,5,116,3,33,Go,Right,0,NoStart,0,High
jou-cmand1DR-20201116,jo,5,117,3,34,Go,Right,0,NoStart,0,High
jou-cmand1DR-20201116,jo,5,118,3,35,Go,Right,0,NoStart,0,High
jou-cmand1DR-20201116,jo,5,119,3,36,Go,Right,0,NoStart,0,High
jou-cmand1DR-20201116,jo,5,120,3,37,Stop,Right,50,NoStart,0,High
jou-cmand1DR-20201116,jo,5,121,3,38,Stop,Right,50,NoStart,0,High
jou-cmand1DR-20201116,jo,5,122,3,39,Go,Left,0,NoStart,0,Low
jou-cmand1DR-20201116,jo,5,123,3,40,Stop,Left,50,NoStart,0,Low
jou-cmand1DR-20201116,jo,5,124,3,41,Go,Left,0,NoStart,0,Low
jou-cmand1DR-20201116,jo,5,125,3,42,Stop,Right,50,NoStart,0,High
jou-cmand1DR-20201116,jo,5,126,3,43,Stop,Left,50,NoStart,0,Low
jou-cmand1DR-20201116,jo,5,127,3,44,Stop,Left,50,NoStart,0,Low
jou-cmand1DR-20201116,jo,5,128,3,45,Go,Right,0,NoStart,0,High
jou-cmand1DR-20201116,jo,5,129,3,46,Go,Left,0,NoStart,0,Low
jou-cmand1DR-20201116,jo,5,130,3,47,Stop,Left,50,NoStart,0,Low
jou-cmand1DR-20201116,jo,5,131,3,48,Go,Left,0,NoStart,0,Low
jou-cmand1DR-20201116,jo,5,132,3,49,Go,Right,0,NoStart,0,High
jou-cmand1DR-20201116,jo,5,133,3,50,Go,Left,0,NoStart,0,Low
jou-cmand1DR-20201116,jo,5,134,3,51,Stop,Left,50,NoStart,0,Low
jou-cmand1DR-20201116,jo,5,135,3,52,Go,Left,0,NoStart,0,Low
jou-cmand1DR-20201116,jo,5,136,3,53,Go,Right,0,NoStart,0,High
jou-cmand1DR-20201116,jo,5,137,3,54,Go,Right,0,NoStart,0,High
jou-cmand1DR-20201116,jo,5,138,3,55,Stop,Left,50,NoStart,0,Low
jou-cmand1DR-20201116,jo,5,139,3,56,Go,Right,0,NoStart,0,High
jou-cmand1DR-20201116,jo,5,140,3,57,Stop,Left,50,NoStart,0,Low
jou-cmand1DR-20201116,jo,5,141,3,58,Stop,Left,50,NoStart,0,Low
jou-cmand1DR-20201116,jo,5,142,3,59,Go,Right,0,NoStart,0,High
jou-cmand1DR-20201116,jo,5,143,3,60,Stop,Right,50,NoStart,0,High
jou-cmand1DR-20201116,jo,5,144,3,61,Stop,Right,50,NoStart,0,High
jou-cmand1DR-20201116,jo,5,145,3,62,Stop,Left,50,NoStart,0,Low
jou-cmand1DR-20201116,jo,5,146,3,63,Stop,Left,50,Left,261,Low
jou-cmand1DR-20201116,jo,5,147,3,64,Stop,Left,50,NoResponse,0,Low
jou-cmand1DR-20201116,jo,5,148,3,65,Stop,Right,267,Right,241,High
jou-cmand1DR-20201116,jo,5,149,3,66,Go,Left,0,Left,241,Low
jou-cmand1DR-20201116,jo,5,150,4,1,Go,Left,0,Left,310,High
jou-cmand1DR-20201116,jo,5,151,4,2,Go,Left,0,Left,268,High
jou-cmand1DR-20201116,jo,5,152,4,3,Stop,Left,133,NoResponse,0,High
jou-cmand1DR-20201116,jo,5,153,4,4,Stop,Right,267,NoResponse,0,Low
jou-cmand1DR-20201116,jo,5,154,4,5,Go,Left,0,Left,210,High
jou-cmand1DR-20201116,jo,5,155,4,6,Go,Right,0,Right,348,Low
jou-cmand1DR-20201116,jo,5,156,4,7,Go,Right,0,Right,493,Low
jou-cmand1DR-20201116,jo,5,157,4,8,Go,Left,0,Left,203,High
jou-cmand1DR-20201116,jo,5,158,4,9,Go,Left,0,Left,245,High
jou-cmand1DR-20201116,jo,5,159,4,10,Go,Left,0,Left,234,High
jou-cmand1DR-20201116,jo,5,160,4,11,Stop,Right,333,Right,348,Low
jou-cmand1DR-20201116,jo,5,161,4,12,Stop,Right,267,NoResponse,0,Low
jou-cmand1DR-20201116,jo,5,162,4,13,Go,Right,0,Right,264,Low
jou-cmand1DR-20201116,jo,5,163,4,14,Stop,Left,483,Left,223,High
jou-cmand1DR-20201116,jo,5,164,4,15,Stop,Left,400,Left,231,High
jou-cmand1DR-20201116,jo,5,165,4,16,Stop,Left,333,Left,229,High
jou-cmand1DR-20201116,jo,5,166,4,17,Go,Right,0,Right,280,Low
jou-cmand1DR-20201116,jo,5,167,4,18,Go,Right,0,Right,344,Low
jou-cmand1DR-20201116,jo,5,168,4,19,Go,Left,0,Left,252,High
jou-cmand1DR-20201116,jo,5,169,4,20,Stop,Right,133,NoStart,0,Low
jou-cmand1DR-20201116,jo,5,170,4,21,Go,Right,0,Right,271,Low
jou-cmand1DR-20201116,jo,5,171,4,22,Go,Right,0,Right,259,Low
jou-cmand1DR-20201116,jo,5,172,4,23,Stop,Left,133,NoResponse,0,High
jou-cmand1DR-20201116,jo,5,173,4,24,Go,Right,0,Right,444,Low
jou-cmand1DR-20201116,jo,5,174,4,25,Go,Right,0,Right,324,Low
jou-cmand1DR-20201116,jo,5,175,4,26,Go,Left,0,Left,256,High
jou-cmand1DR-20201116,jo,5,176,4,27,Go,Right,0,Right,345,Low
jou-cmand1DR-20201116,jo,5,177,4,28,Stop,Left,200,Left,221,High
jou-cmand1DR-20201116,jo,5,178,4,29,Go,Left,0,Left,258,High
jou-cmand1DR-20201116,jo,5,179,4,30,Go,Left,0,Left,233,High
jou-cmand1DR-20201116,jo,5,180,4,31,Go,Left,0,Left,259,High
jou-cmand1DR-20201116,jo,5,181,5,1,Go,Right,0,Right,347,High
jou-cmand1DR-20201116,jo,5,182,5,2,Stop,Right,50,NoStart,0,High
jou-cmand1DR-20201116,jo,5,183,5,3,Stop,Right,50,NoResponse,0,High
jou-cmand1DR-20201116,jo,5,184,5,4,Go,Left,0,Left,440,Low
jou-cmand1DR-20201116,jo,5,185,5,5,Stop,Right,267,Right,319,High
jou-cmand1DR-20201116,jo,5,186,5,6,Go,Left,0,NoStart,0,Low
jou-cmand1DR-20201116,jo,5,187,5,7,Stop,Left,50,NoResponse,0,Low
jou-cmand1DR-20201116,jo,5,188,5,8,Go,Left,0,Left,246,Low
jou-cmand1DR-20201116,jo,5,189,5,9,Go,Right,0,Right,256,High
jou-cmand1DR-20201116,jo,5,190,5,10,Go,Left,0,Left,428,Low
jou-cmand1DR-20201116,jo,5,191,5,11,Go,Left,0,Left,520,Low
jou-cmand1DR-20201116,jo,5,192,5,12,Stop,Right,267,Right,237,High
jou-cmand1DR-20201116,jo,5,193,5,13,Go,Right,0,Right,327,High
jou-cmand1DR-20201116,jo,5,194,5,14,Go,Right,0,Right,267,High
jou-cmand1DR-20201116,jo,5,195,5,15,Go,Left,0,Left,358,Low
jou-cmand1DR-20201116,jo,5,196,5,16,Stop,Right,200,Right,251,High
jou-cmand1DR-20201116,jo,5,197,5,17,Go,Left,0,Left,360,Low
jou-cmand1DR-20201116,jo,5,198,5,18,Go,Right,0,Right,269,High
jou-cmand1DR-20201116,jo,5,199,5,19,Stop,Right,200,Right,252,High
jou-cmand1DR-20201116,jo,5,200,5,20,Go,Left,0,Left,385,Low
jou-cmand1DR-20201116,jo,5,201,5,21,Go,Left,0,Left,356,Low
jou-cmand1DR-20201116,jo,5,202,5,22,Go,Right,0,Right,245,High
jou-cmand1DR-20201116,jo,5,203,5,23,Go,Left,0,Left,346,Low
jou-cmand1DR-20201116,jo,5,204,5,24,Go,Right,0,Right,278,High
jou-cmand1DR-20201116,jo,5,205,5,25,Stop,Left,200,NoResponse,0,Low
jou-cmand1DR-20201116,jo,5,206,5,26,Go,Right,0,Right,238,High
jou-cmand1DR-20201116,jo,5,207,5,27,Stop,Left,400,Left,307,Low
jou-cmand1DR-20201116,jo,5,208,5,28,Go,Right,0,Right,239,High
jou-cmand1DR-20201116,jo,5,209,5,29,Go,Right,0,NoStart,0,High
jou-cmand1DR-20201116,jo,5,210,5,30,Go,Right,0,Right,284,High
jou-cmand1DR-20201116,jo,5,211,5,31,Stop,Left,333,Left,302,Low
jou-cmand1DR-20201116,jo,5,212,5,32,Stop,Right,200,Right,238,High
jou-cmand1DR-20201116,jo,5,213,5,33,Stop,Right,50,NoResponse,0,High
jou-cmand1DR-20201116,jo,5,214,5,34,Stop,Right,133,NoStart,0,High
jou-cmand1DR-20201116,jo,5,215,5,35,Stop,Right,133,NoStart,0,High
jou-cmand1DR-20201116,jo,5,216,5,36,Go,Left,0,Left,361,Low
jou-cmand1DR-20201116,jo,5,217,5,37,Go,Right,0,Right,256,High
jou-cmand1DR-20201116,jo,5,218,5,38,Stop,Left,133,NoResponse,0,Low
jou-cmand1DR-20201116,jo,5,219,5,39,Go,Right,0,Right,253,High
jou-cmand1DR-20201116,jo,5,220,5,40,Stop,Right,333,Right,263,High
jou-cmand1DR-20201116,jo,5,221,5,41,Go,Left,0,Left,446,Low
jou-cmand1DR-20201116,jo,5,222,6,1,Stop,Left,133,NoResponse,0,High
jou-cmand1DR-20201116,jo,5,223,6,2,Stop,Left,200,NoStart,0,High
jou-cmand1DR-20201116,jo,5,224,6,3,Stop,Right,200,NoResponse,0,Low
jou-cmand1DR-20201116,jo,5,225,6,4,Go,Right,0,Right,419,Low
jou-cmand1DR-20201116,jo,5,226,6,5,Stop,Right,400,NoResponse,0,Low
jou-cmand1DR-20201116,jo,5,227,6,6,Go,Right,0,Right,385,Low
jou-cmand1DR-20201116,jo,5,228,6,7,Go,Right,0,Right,316,Low
jou-cmand1DR-20201116,jo,5,229,6,8,Go,Left,0,Left,197,High
jou-cmand1DR-20201116,jo,5,230,6,9,Stop,Right,483,Right,504,Low
jou-cmand1DR-20201116,jo,5,231,6,10,Go,Left,0,Left,240,High
jou-cmand1DR-20201116,jo,5,232,6,11,Stop,Left,267,Left,238,High
jou-cmand1DR-20201116,jo,5,233,6,12,Go,Left,0,Left,226,High
jou-cmand1DR-20201116,jo,5,234,6,13,Stop,Right,50,NoResponse,0,Low
jou-cmand1DR-20201116,jo,5,235,6,14,Go,Right,0,Right,528,Low
jou-cmand1DR-20201116,jo,5,236,6,15,Go,Left,0,Left,223,High
jou-cmand1DR-20201116,jo,5,237,6,16,Go,Left,0,Left,259,High
jou-cmand1DR-20201116,jo,5,238,6,17,Go,Left,0,Left,269,High
jou-cmand1DR-20201116,jo,5,239,6,18,Stop,Right,133,NoResponse,0,Low
jou-cmand1DR-20201116,jo,5,240,6,19,Stop,Left,200,Left,261,High
jou-cmand1DR-20201116,jo,5,241,6,20,Go,Left,0,Left,283,High
jou-cmand1DR-20201116,jo,5,242,6,21,Go,Right,0,NoStart,0,Low
jou-cmand1DR-20201116,jo,5,243,6,22,Stop,Right,50,NoStart,0,Low
jou-cmand1DR-20201116,jo,5,244,6,23,Go,Right,0,Right,446,Low
jou-cmand1DR-20201116,jo,5,245,6,24,Stop,Right,50,NoStart,0,Low
jou-cmand1DR-20201116,jo,5,246,6,25,Stop,Right,50,NoResponse,0,Low
jou-cmand1DR-20201116,jo,5,247,6,26,Go,Left,0,Left,272,High
jou-cmand1DR-20201116,jo,5,248,6,27,Stop,Right,267,Right,296,Low
jou-cmand1DR-20201116,jo,5,249,6,28,Stop,Right,200,NoResponse,0,Low
jou-cmand1DR-20201116,jo,5,250,6,29,Go,Left,0,Left,230,High
jou-cmand1DR-20201116,jo,5,251,7,1,Go,Left,0,Left,281,Low
jou-cmand1DR-20201116,jo,5,252,7,2,Stop,Right,333,Right,272,High
jou-cmand1DR-20201116,jo,5,253,7,3,Go,Left,0,Left,256,Low
jou-cmand1DR-20201116,jo,5,254,7,4,Go,Right,0,Right,316,High
jou-cmand1DR-20201116,jo,5,255,7,5,Go,Left,0,Left,489,Low
jou-cmand1DR-20201116,jo,5,256,7,6,Go,Left,0,Left,421,Low
jou-cmand1DR-20201116,jo,5,257,7,7,Go,Right,0,Right,291,High
jou-cmand1DR-20201116,jo,5,258,7,8,Go,Left,0,Left,338,Low
jou-cmand1DR-20201116,jo,5,259,7,9,Go,Left,0,Left,394,Low
jou-cmand1DR-20201116,jo,5,260,7,10,Stop,Right,133,NoResponse,0,High
jou-cmand1DR-20201116,jo,5,261,7,11,Stop,Left,267,NoStart,0,Low
jou-cmand1DR-20201116,jo,5,262,7,12,Stop,Right,267,Right,302,High
jou-cmand1DR-20201116,jo,5,263,7,13,Go,Right,0,Right,279,High
jou-cmand1DR-20201116,jo,5,264,7,14,Go,Right,0,Right,268,High
jou-cmand1DR-20201116,jo,5,265,7,15,Go,Left,0,Left,290,Low
jou-cmand1DR-20201116,jo,5,266,7,16,Stop,Right,133,NoStart,0,High
jou-cmand1DR-20201116,jo,5,267,7,17,Stop,Left,50,NoStart,0,Low
jou-cmand1DR-20201116,jo,5,268,7,18,Stop,Right,50,NoResponse,0,High
jou-cmand1DR-20201116,jo,5,269,7,19,Stop,Left,200,NoResponse,0,Low
jou-cmand1DR-20201116,jo,5,270,7,20,Stop,Right,267,Right,245,High
jou-cmand1DR-20201116,jo,5,271,7,21,Go,Right,0,Right,299,High
jou-cmand1DR-20201116,jo,5,272,7,22,Go,Right,0,Right,319,High
jou-cmand1DR-20201116,jo,5,273,7,23,Stop,Left,50,NoStart,0,Low
jou-cmand1DR-20201116,jo,5,274,7,24,Go,Right,0,Right,242,High
jou-cmand1DR-20201116,jo,5,275,7,25,Go,Left,0,Left,414,Low
jou-cmand1DR-20201116,jo,5,276,7,26,Stop,Left,50,NoResponse,0,Low
jou-cmand1DR-20201116,jo,5,277,7,27,Go,Right,0,Right,254,High
jou-cmand1DR-20201116,jo,5,278,7,28,Go,Right,0,Right,231,High
jou-cmand1DR-20201116,jo,5,279,7,29,Go,Right,0,Right,283,High
jou-cmand1DR-20201116,jo,5,280,7,30,Stop,Left,133,NoResponse,0,Low
jou-cmand1DR-20201116,jo,5,281,7,31,Stop,Right,333,Right,328,High
jou-cmand1DR-20201116,jo,5,282,7,32,Go,Left,0,Left,365,Low
jou-cmand1DR-20201116,jo,5,283,7,33,Go,Right,0,Right,491,High
jou-cmand1DR-20201116,jo,5,284,7,34,Go,Right,0,Right,291,High
jou-cmand1DR-20201116,jo,5,285,7,35,Stop,Right,200,NoStart,0,High
jou-cmand1DR-20201116,jo,5,286,7,36,Go,Left,0,Left,343,Low
jou-cmand1DR-20201116,jo,5,287,7,37,Go,Left,0,Left,225,Low
jou-cmand1DR-20201116,jo,5,288,8,1,Go,Right,0,Right,418,Low
jou-cmand1DR-20201116,jo,5,289,8,2,Stop,Right,200,NoStart,0,Low
jou-cmand1DR-20201116,jo,5,290,8,3,Go,Left,0,Left,249,High
jou-cmand1DR-20201116,jo,5,291,8,4,Go,Left,0,Left,209,High
jou-cmand1DR-20201116,jo,5,292,8,5,Go,Right,0,Right,384,Low
jou-cmand1DR-20201116,jo,5,293,8,6,Stop,Left,200,Left,214,High
jou-cmand1DR-20201116,jo,5,294,8,7,Stop,Right,50,NoResponse,0,Low
jou-cmand1DR-20201116,jo,5,295,8,8,Go,Left,0,Left,286,High
jou-cmand1DR-20201116,jo,5,296,8,9,Go,Left,0,Left,285,High
jou-cmand1DR-20201116,jo,5,297,8,10,Go,Right,0,Right,325,Low
jou-cmand1DR-20201116,jo,5,298,8,11,Stop,Left,267,Left,259,High
jou-cmand1DR-20201116,jo,5,299,8,12,Go,Left,0,NoStart,0,High
jou-cmand1DR-20201116,jo,5,300,8,13,Go,Right,0,NoStart,0,Low
jou-cmand1DR-20201116,jo,5,301,8,14,Go,Left,0,Left,229,High
jou-cmand1DR-20201116,jo,5,302,8,15,Stop,Left,133,NoStart,0,High
jou-cmand1DR-20201116,jo,5,303,8,16,Go,Left,0,Left,253,High
jou-cmand1DR-20201116,jo,5,304,8,17,Go,Right,0,Right,344,Low
jou-cmand1DR-20201116,jo,5,305,8,18,Go,Right,0,NoStart,0,Low
jou-cmand1DR-20201116,jo,5,306,8,19,Go,Left,0,NoStart,0,High
jou-cmand1DR-20201116,jo,5,307,8,20,Go,Right,0,Right,330,Low
jou-cmand1DR-20201116,jo,5,308,8,21,Go,Left,0,Left,252,High
jou-cmand1DR-20201116,jo,5,309,8,22,Go,Left,0,Left,239,High
jou-cmand1DR-20201116,jo,5,310,8,23,Stop,Right,133,NoResponse,0,Low
jou-cmand1DR-20201116,jo,5,311,8,24,Go,Right,0,Right,303,Low
jou-cmand1DR-20201116,jo,5,312,8,25,Go,Right,0,Right,443,Low
jou-cmand1DR-20201116,jo,5,313,8,26,Stop,Left,267,Left,251,High
jou-cmand1DR-20201116,jo,5,314,8,27,Go,Right,0,Right,333,Low
jou-cmand1DR-20201116,jo,5,315,8,28,Go,Right,0,Right,326,Low
jou-cmand1DR-20201116,jo,5,316,8,29,Go,Left,0,Left,243,High
jou-cmand1DR-20201116,jo,5,317,8,30,Go,Left,0,Left,251,High
jou-cmand1DR-20201116,jo,5,318,8,31,Go,Left,0,Left,285,High
jou-cmand1DR-20201116,jo,5,319,8,32,Go,Left,0,Left,336,High
jou-cmand1DR-20201116,jo,5,320,8,33,Go,Right,0,Right,311,Low
jou-cmand1DR-20201116,jo,5,321,8,34,Stop,Left,50,NoStart,0,High
jou-cmand1DR-20201116,jo,5,322,8,35,Go,Right,0,Right,281,Low
jou-cmand1DR-20201116,jo,5,323,8,36,Stop,Right,50,NoStart,0,Low
jou-cmand1DR-20201116,jo,5,324,8,37,Stop,Left,50,NoResponse,0,High
jou-cmand1DR-20201116,jo,5,325,8,38,Stop,Right,133,NoResponse,0,Low
jou-cmand1DR-20201116,jo,5,326,8,39,Stop,Right,200,NoResponse,0,Low
jou-cmand1DR-20201116,jo,5,327,9,1,Stop,Right,400,Right,421,High
jou-cmand1DR-20201116,jo,5,328,9,2,Stop,Left,200,Left,242,Low
jou-cmand1DR-20201116,jo,5,329,9,3,Go,Left,0,Left,243,Low
jou-cmand1DR-20201116,jo,5,330,9,4,Go,Right,0,Right,273,High
jou-cmand1DR-20201116,jo,5,331,9,5,Stop,Right,50,NoResponse,0,High
jou-cmand1DR-20201116,jo,5,332,9,6,Go,Right,0,Right,279,High
jou-cmand1DR-20201116,jo,5,333,9,7,Stop,Right,267,Right,245,High
jou-cmand1DR-20201116,jo,5,334,9,8,Stop,Left,133,NoStart,0,Low
jou-cmand1DR-20201116,jo,5,335,9,9,Go,Right,0,Right,256,High
jou-cmand1DR-20201116,jo,5,336,9,10,Go,Left,0,Left,590,Low
jou-cmand1DR-20201116,jo,5,337,9,11,Go,Left,0,Left,443,Low
jou-cmand1DR-20201116,jo,5,338,9,12,Go,Left,0,Left,332,Low
jou-cmand1DR-20201116,jo,5,339,9,13,Go,Right,0,Right,239,High
jou-cmand1DR-20201116,jo,5,340,9,14,Go,Left,0,Left,306,Low
jou-cmand1DR-20201116,jo,5,341,9,15,Go,Left,0,NoStart,0,Low
jou-cmand1DR-20201116,jo,5,342,9,16,Go,Right,0,Right,230,High
jou-cmand1DR-20201116,jo,5,343,9,17,Go,Right,0,Right,269,High
jou-cmand1DR-20201116,jo,5,344,9,18,Stop,Right,133,NoResponse,0,High
jou-cmand1DR-20201116,jo,5,345,9,19,Stop,Right,267,NoStart,0,High
jou-cmand1DR-20201116,jo,5,346,9,20,Go,Left,0,Left,367,Low
jou-cmand1DR-20201116,jo,5,347,9,21,Stop,Right,267,Right,277,High
jou-cmand1DR-20201116,jo,5,348,9,22,Stop,Left,200,NoResponse,0,Low
jou-cmand1DR-20201116,jo,5,349,9,23,Go,Right,0,Right,321,High
jou-cmand1DR-20201116,jo,5,350,9,24,Go,Left,0,Left,363,Low
jou-cmand1DR-20201116,jo,5,351,9,25,Go,Right,0,Right,305,High
jou-cmand1DR-20201116,jo,5,352,9,26,Stop,Left,400,Left,328,Low
jou-cmand1DR-20201116,jo,5,353,9,27,Stop,Left,200,NoResponse,0,Low
jou-cmand1DR-20201116,jo,5,354,9,28,Go,Right,0,Right,272,High
jou-cmand1DR-20201116,jo,5,355,9,29,Stop,Right,400,Right,285,High
jou-cmand1DR-20201116,jo,5,356,9,30,Stop,Right,333,Right,346,High
jou-cmand1DR-20201116,jo,5,357,9,31,Go,Right,0,Right,300,High
jou-cmand1DR-20201116,jo,5,358,9,32,Go,Right,0,Right,308,High
jou-cmand1DR-20201116,jo,5,359,9,33,Go,Right,0,Right,279,High
jou-cmand1DR-20201116,jo,5,360,9,34,Go,Right,0,NoStart,0,High
jou-cmand1DR-20201116,jo,5,361,9,35,Go,Right,0,Right,281,High
jou-cmand1DR-20201116,jo,5,362,9,36,Stop,Right,267,Right,326,High
jou-cmand1DR-20201116,jo,5,363,9,37,Go,Left,0,Left,355,Low
jou-cmand1DR-20201116,jo,5,364,10,1,Go,Left,0,Left,345,High
jou-cmand1DR-20201116,jo,5,365,10,2,Go,Left,0,Left,220,High
jou-cmand1DR-20201116,jo,5,366,10,3,Stop,Right,133,NoResponse,0,Low
jou-cmand1DR-20201116,jo,5,367,10,4,Go,Left,0,Left,239,High
jou-cmand1DR-20201116,jo,5,368,10,5,Stop,Left,200,NoStart,0,High
jou-cmand1DR-20201116,jo,5,369,10,6,Stop,Left,200,Left,268,High
jou-cmand1DR-20201116,jo,5,370,10,7,Go,Left,0,Left,275,High
jou-cmand1DR-20201116,jo,5,371,10,8,Go,Left,0,Left,243,High
jou-cmand1DR-20201116,jo,5,372,10,9,Stop,Left,133,NoResponse,0,High
jou-cmand1DR-20201116,jo,5,373,10,10,Go,Left,0,Left,252,High
jou-cmand1DR-20201116,jo,5,374,10,11,Go,Right,0,Right,367,Low
jou-cmand1DR-20201116,jo,5,375,10,12,Go,Left,0,Left,248,High
jou-cmand1DR-20201116,jo,5,376,10,13,Go,Left,0,Left,222,High
jou-cmand1DR-20201116,jo,5,377,10,14,Go,Left,0,Left,249,High
jou-cmand1DR-20201116,jo,5,378,10,15,Go,Right,0,Right,316,Low
jou-cmand1DR-20201116,jo,5,379,10,16,Stop,Left,200,Left,245,High
jou-cmand1DR-20201116,jo,5,380,10,17,Go,Right,0,NoStart,0,Low
jou-cmand1DR-20201116,jo,5,381,10,18,Stop,Left,50,NoStart,0,High
jou-cmand1DR-20201116,jo,5,382,10,19,Go,Right,0,NoStart,0,Low
jou-cmand1DR-20201116,jo,5,383,10,20,Stop,Right,50,NoStart,0,Low
jou-cmand1DR-20201116,jo,5,384,10,21,Go,Right,0,NoStart,0,Low
jou-cmand1DR-20201116,jo,5,385,10,22,Stop,Right,50,NoStart,0,Low
jou-cmand1DR-20201116,jo,5,386,10,23,Go,Left,0,NoStart,0,High
jou-cmand1DR-20201116,jo,5,387,10,24,Go,Left,0,NoStart,0,High
jou-cmand1DR-20201116,jo,5,388,10,25,Go,Left,0,NoStart,0,High
jou-cmand1DR-20201116,jo,5,389,10,26,Go,Left,0,NoStart,0,High
jou-cmand1DR-20201116,jo,5,390,10,27,Go,Left,0,NoStart,0,High
jou-cmand1DR-20201116,jo,5,391,10,28,Go,Left,0,NoStart,0,High
jou-cmand1DR-20201116,jo,5,392,10,29,Go,Right,0,NoStart,0,Low
jou-cmand1DR-20201116,jo,5,393,10,30,Go,Right,0,NoStart,0,Low
jou-cmand1DR-20201116,jo,5,394,10,31,Go,Right,0,NoStart,0,Low
jou-cmand1DR-20201116,jo,5,395,10,32,Go,Right,0,NoStart,0,Low
jou-cmand1DR-20201116,jo,5,396,10,33,Go,Left,0,NoStart,0,High
jou-cmand1DR-20201116,jo,5,397,10,34,Go,Left,0,NoStart,0,High
jou-cmand1DR-20201116,jo,5,398,10,35,Go,Right,0,NoStart,0,Low
jou-cmand1DR-20201116,jo,5,399,10,36,Go,Left,0,Left,168,High
jou-cmand1DR-20201116,jo,5,400,10,37,Go,Right,0,NoStart,0,Low
jou-cmand1DR-20201116,jo,5,401,10,38,Stop,Right,50,NoStart,0,Low
jou-cmand1DR-20201116,jo,5,402,10,39,Go,Right,0,NoStart,0,Low
jou-cmand1DR-20201116,jo,5,403,10,40,Stop,Right,50,NoStart,0,Low
jou-cmand1DR-20201116,jo,5,404,10,41,Go,Left,0,NoStart,0,High
jou-cmand1DR-20201116,jo,5,405,10,42,Go,Left,0,NoStart,0,High
jou-cmand1DR-20201116,jo,5,406,10,43,Go,Right,0,NoStart,0,Low
jou-cmand1DR-20201116,jo,5,407,10,44,Go,Left,0,NoStart,0,High
jou-cmand1DR-20201116,jo,5,408,10,45,Stop,Right,50,NoStart,0,Low
jou-cmand1DR-20201116,jo,5,409,10,46,Go,Right,0,NoStart,0,Low
jou-cmand1DR-20201116,jo,5,410,10,47,Go,Left,0,NoStart,0,High
jou-cmand1DR-20201116,jo,5,411,10,48,Stop,Right,50,NoStart,0,Low
jou-cmand1DR-20201116,jo,5,412,10,49,Stop,Right,50,NoResponse,0,Low
jou-cmand1DR-20201116,jo,5,413,10,50,Go,Left,0,NoStart,0,High
jou-cmand1DR-20201116,jo,5,414,10,51,Stop,Left,267,NoStart,0,High
jou-cmand1DR-20201116,jo,5,415,10,52,Go,Left,0,NoStart,0,High
jou-cmand1DR-20201116,jo,5,416,10,53,Stop,Left,333,NoStart,0,High
jou-cmand1DR-20201116,jo,5,417,10,54,Go,Left,0,NoStart,0,High
jou-cmand1DR-20201116,jo,5,418,10,55,Stop,Left,483,NoStart,0,High
jou-cmand1DR-20201116,jo,5,419,10,56,Stop,Right,483,NoStart,0,Low
jou-cmand1DR-20201116,jo,5,420,10,57,Go,Left,0,Left,316,High
jou-cmand1DR-20201116,jo,5,421,10,58,Stop,Right,50,NoStart,0,Low
jou-cmand1DR-20201116,jo,5,422,10,59,Stop,Left,400,NoStart,0,High
jou-cmand1DR-20201116,jo,5,423,10,60,Go,Right,0,NoStart,0,Low
jou-cmand1DR-20201116,jo,5,424,10,61,Go,Right,0,NoStart,0,Low
jou-cmand1DR-20201116,jo,5,425,10,62,Go,Right,0,NoStart,0,Low
jou-cmand1DR-20201116,jo,5,426,10,63,Go,Left,0,NoStart,0,High
jou-cmand1DR-20201116,jo,5,427,10,64,Stop,Left,50,NoStart,0,High
jou-cmand1DR-20201116,jo,5,428,10,65,Go,Right,0,NoStart,0,Low
jou-cmand1DR-20201116,jo,5,429,10,66,Stop,Right,200,NoStart,0,Low
jou-cmand1DR-20201116,jo,5,430,10,67,Stop,Right,133,NoStart,0,Low
jou-cmand1DR-20201116,jo,5,431,10,68,Stop,Right,400,NoStart,0,Low
jou-cmand1DR-20201116,jo,5,432,10,69,Go,Left,0,NoStart,0,High
jou-cmand1DR-20201116,jo,5,433,10,70,Go,Left,0,NoStart,0,High
jou-cmand1DR-20201116,jo,5,434,10,71,Go,Left,0,NoStart,0,High
jou-cmand1DR-20201116,jo,5,435,10,72,Go,Right,0,NoStart,0,Low
jou-cmand1DR-20201116,jo,5,436,10,73,Stop,Right,483,NoStart,0,Low
jou-cmand1DR-20201116,jo,5,437,10,74,Go,Left,0,NoStart,0,High
jou-cmand1DR-20201116,jo,5,438,10,75,Go,Right,0,NoStart,0,Low
jou-cmand1DR-20201116,jo,5,439,10,76,Stop,Left,400,NoStart,0,High
jou-cmand1DR-20201116,jo,5,440,10,77,Go,Right,0,NoStart,0,Low
jou-cmand1DR-20201116,jo,5,441,10,78,Go,Right,0,NoStart,0,Low
jou-cmand1DR-20201116,jo,5,442,10,79,Stop,Left,50,NoStart,0,High
jou-cmand1DR-20201116,jo,5,443,10,80,Stop,Right,50,NoStart,0,Low
jou-cmand1DR-20201116,jo,5,444,10,81,Go,Right,0,NoStart,0,Low
jou-cmand1DR-20201116,jo,5,445,10,82,Go,Left,0,NoStart,0,High
jou-cmand1DR-20201116,jo,5,446,10,83,Stop,Right,200,NoStart,0,Low
jou-cmand1DR-20201116,jo,5,447,10,84,Go,Right,0,NoStart,0,Low
jou-cmand1DR-20201116,jo,5,448,10,85,Stop,Right,333,NoStart,0,Low
jou-cmand1DR-20201116,jo,5,449,10,86,Stop,Left,267,NoStart,0,High
jou-cmand1DR-20201116,jo,5,450,10,87,Go,Left,0,NoStart,0,High
jou-cmand1DR-20201116,jo,5,451,10,88,Stop,Left,400,NoStart,0,High
jou-cmand1DR-20201116,jo,5,452,10,89,Stop,Right,483,NoStart,0,Low
jou-cmand1DR-20201116,jo,5,453,10,90,Go,Right,0,NoStart,0,Low
jou-cmand1DR-20201116,jo,5,454,10,91,Go,Right,0,NoStart,0,Low
jou-cmand1DR-20201116,jo,5,455,10,92,Go,Left,0,NoStart,0,High
jou-cmand1DR-20201116,jo,5,456,10,93,Go,Right,0,NoStart,0,Low
jou-cmand1DR-20201116,jo,5,457,10,94,Stop,Left,133,NoStart,0,High
jou-cmand1DR-20201116,jo,5,458,10,95,Go,Right,0,NoStart,0,Low
jou-cmand1DR-20201116,jo,5,459,10,96,Go,Left,0,NoStart,0,High
jou-cmand1DR-20201116,jo,5,460,10,97,Go,Right,0,NoStart,0,Low
jou-cmand1DR-20201116,jo,5,461,10,98,Go,Left,0,NoStart,0,High
jou-cmand1DR-20201116,jo,5,462,10,99,Go,Left,0,NoStart,0,High
jou-cmand1DR-20201116,jo,5,463,10,100,Go,Right,0,NoStart,0,Low
jou-cmand1DR-20201116,jo,5,464,10,101,Go,Right,0,NoStart,0,Low
jou-cmand1DR-20201116,jo,5,465,10,102,Stop,Right,200,NoStart,0,Low
jou-cmand1DR-20201116,jo,5,466,10,103,Go,Left,0,NoStart,0,High
jou-cmand1DR-20201116,jo,5,467,10,104,Stop,Right,133,NoStart,0,Low
jou-cmand1DR-20201116,jo,5,468,10,105,Stop,Right,133,NoStart,0,Low
jou-cmand1DR-20201116,jo,5,469,10,106,Go,Left,0,NoStart,0,High
jou-cmand1DR-20201116,jo,5,470,10,107,Go,Right,0,NoStart,0,Low
jou-cmand1DR-20201116,jo,5,471,10,108,Go,Left,0,NoStart,0,High
jou-cmand1DR-20201116,jo,5,472,10,109,Go,Left,0,NoStart,0,High
jou-cmand1DR-20201116,jo,5,473,10,110,Go,Left,0,NoStart,0,High
jou-cmand1DR-20201116,jo,5,474,10,111,Go,Left,0,NoStart,0,High
jou-cmand1DR-20201116,jo,5,475,10,112,Stop,Left,133,NoStart,0,High
jou-cmand1DR-20201116,jo,5,476,10,113,Stop,Right,333,NoStart,0,Low
jou-cmand1DR-20201116,jo,5,477,10,114,Stop,Right,400,NoStart,0,Low
jou-cmand1DR-20201116,jo,5,478,10,115,Stop,Right,200,NoStart,0,Low
jou-cmand1DR-20201116,jo,5,479,10,116,Go,Left,0,NoStart,0,High
jou-cmand1DR-20201116,jo,5,480,10,117,Stop,Left,333,NoStart,0,High
jou-cmand1DR-20201116,jo,5,481,10,118,Go,Left,0,NoStart,0,High
jou-cmand1DR-20201116,jo,5,482,10,119,Stop,Left,267,NoStart,0,High
jou-cmand1DR-20201116,jo,5,483,10,120,Go,Right,0,NoStart,0,Low
jou-cmand1DR-20201116,jo,5,484,10,121,Go,Left,0,NoStart,0,High
jou-cmand1DR-20201116,jo,5,485,10,122,Go,Left,0,NoStart,0,High
jou-cmand1DR-20201116,jo,5,486,10,123,Go,Left,0,NoStart,0,High
jou-cmand1DR-20201116,jo,5,487,10,124,Stop,Right,400,NoStart,0,Low
jou-cmand1DR-20201116,jo,5,488,10,125,Go,Left,0,NoStart,0,High
jou-cmand1DR-20201116,jo,5,489,10,126,Stop,Left,50,NoStart,0,High
jou-cmand1DR-20201116,jo,5,490,10,127,Go,Right,0,NoStart,0,Low
jou-cmand1DR-20201116,jo,5,491,10,128,Go,Left,0,NoStart,0,High
jou-cmand1DR-20201116,jo,5,492,10,129,Go,Left,0,NoStart,0,High
jou-cmand1DR-20201116,jo,5,493,10,130,Go,Right,0,NoStart,0,Low
jou-cmand1DR-20201116,jo,5,494,10,131,Go,Left,0,NoStart,0,High
jou-cmand1DR-20201116,jo,5,495,10,132,Stop,Left,133,NoStart,0,High
jou-cmand1DR-20201116,jo,5,496,10,133,Stop,Left,133,NoStart,0,High
jou-cmand1DR-20201116,jo,5,497,10,134,Go,Left,0,NoStart,0,High
jou-cmand1DR-20201116,jo,5,498,10,135,Stop,Right,267,NoStart,0,Low
jou-cmand1DR-20201116,jo,5,499,10,136,Go,Left,0,NoStart,0,High
jou-cmand1DR-20201116,jo,5,500,10,137,Stop,Left,483,NoStart,0,High
jou-cmand1DR-20201116,jo,5,501,10,138,Go,Left,0,NoStart,0,High
jou-cmand1DR-20201116,jo,5,502,10,139,Go,Right,0,NoStart,0,Low
jou-cmand1DR-20201116,jo,5,503,10,140,Stop,Left,483,Left,209,High
jou-cmand1DR-20201116,jo,5,504,10,141,Go,Left,0,Left,289,High
jou-cmand1DR-20201116,jo,5,505,10,142,Go,Right,0,Right,265,Low
jou-cmand1DR-20201116,jo,5,506,10,143,Stop,Left,267,Left,246,High
jou-cmand1DR-20201116,jo,5,507,10,144,Stop,Left,133,NoResponse,0,High
jou-cmand1DR-20201116,jo,5,508,10,145,Go,Right,0,Right,296,Low
jou-cmand1DR-20201116,jo,5,509,10,146,Stop,Left,333,Left,236,High
jou-cmand1DR-20201116,jo,5,510,10,147,Go,Left,0,Left,221,High
jou-cmand1DR-20201116,jo,5,511,10,148,Stop,Right,133,NoResponse,0,Low
jou-cmand1DR-20201116,jo,5,512,10,149,Stop,Right,267,Right,287,Low
jou-cmand1DR-20201116,jo,5,513,10,150,Stop,Right,200,Right,282,Low
jou-cmand1DR-20201116,jo,5,514,10,151,Go,Right,0,NoStart,0,Low
jou-cmand1DR-20201116,jo,5,515,10,152,Go,Right,0,Right,340,Low
jou-cmand1DR-20201116,jo,5,516,10,153,Stop,Right,50,NoResponse,0,Low
jou-cmand1DR-20201116,jo,5,517,10,154,Go,Left,0,Left,214,High
jou-cmand1DR-20201116,jo,5,518,10,155,Stop,Right,200,NoStart,0,Low
jou-cmand1DR-20201116,jo,5,519,10,156,Go,Right,0,NoStart,0,Low
jou-cmand1DR-20201116,jo,5,520,10,157,Go,Left,0,Left,209,High
jou-cmand1DR-20201116,jo,5,521,10,158,Go,Right,0,Right,363,Low
jou-cmand1DR-20201116,jo,5,522,10,159,Stop,Right,333,Right,280,Low
jou-cmand1DR-20201116,jo,5,523,10,160,Go,Right,0,Right,330,Low
jou-cmand1DR-20201116,jo,5,524,10,161,Go,Left,0,Left,210,High
jou-cmand1DR-20201116,jo,5,525,10,162,Go,Left,0,Left,244,High
jou-cmand1DR-20201116,jo,5,526,10,163,Go,Left,0,Left,195,High
jou-cmand1DR-20201116,jo,5,527,10,164,Go,Left,0,Left,174,High
jou-cmand1DR-20201116,jo,5,528,10,165,Stop,Right,267,Right,271,Low
jou-cmand1DR-20201116,jo,5,529,10,166,Go,Right,0,NoStart,0,Low
jou-cmand1DR-20201116,jo,5,530,10,167,Go,Left,0,NoStart,0,High
jou-cmand1DR-20201116,jo,5,531,10,168,Go,Right,0,NoStart,0,Low
jou-cmand1DR-20201116,jo,5,532,10,169,Stop,Right,133,NoStart,0,Low
jou-cmand1DR-20201116,jo,5,533,10,170,Stop,Left,50,NoStart,0,High
jou-cmand1DR-20201116,jo,5,534,10,171,Go,Left,0,NoStart,0,High
jou-cmand1DR-20201116,jo,5,535,10,172,Stop,Left,50,NoResponse,0,High
jou-cmand1DR-20201116,jo,5,536,11,1,Stop,Right,267,NoResponse,0,High
jou-cmand1DR-20201116,jo,5,537,11,2,Stop,Right,333,NoStart,0,High
jou-cmand1DR-20201116,jo,5,538,11,3,Go,Left,0,Left,226,Low
jou-cmand1DR-20201116,jo,5,539,11,4,Go,Left,0,Left,337,Low
jou-cmand1DR-20201116,jo,5,540,11,5,Stop,Right,333,Right,277,High
jou-cmand1DR-20201116,jo,5,541,11,6,Go,Right,0,Right,495,High
jou-cmand1DR-20201116,jo,5,542,11,7,Stop,Right,267,Right,229,High
jou-cmand1DR-20201116,jo,5,543,11,8,Go,Left,0,Left,344,Low
jou-cmand1DR-20201116,jo,5,544,11,9,Go,Left,0,Left,346,Low
jou-cmand1DR-20201116,jo,5,545,11,10,Go,Right,0,Right,228,High
jou-cmand1DR-20201116,jo,5,546,11,11,Go,Right,0,Right,235,High
jou-cmand1DR-20201116,jo,5,547,11,12,Go,Left,0,Left,277,Low
jou-cmand1DR-20201116,jo,5,548,11,13,Stop,Right,200,Right,227,High
jou-cmand1DR-20201116,jo,5,549,11,14,Go,Left,0,NoStart,0,Low
jou-cmand1DR-20201116,jo,5,550,11,15,Stop,Right,50,NoStart,0,High
jou-cmand1DR-20201116,jo,5,551,11,16,Go,Left,0,NoStart,0,Low
jou-cmand1DR-20201116,jo,5,552,11,17,Stop,Right,50,NoStart,0,High
jou-cmand1DR-20201116,jo,5,553,11,18,Stop,Right,50,NoResponse,0,High
jou-cmand1DR-20201116,jo,5,554,11,19,Go,Left,0,Left,306,Low
jou-cmand1DR-20201116,jo,5,555,11,20,Go,Left,0,Left,266,Low
jou-cmand1DR-20201116,jo,5,556,12,1,Go,Left,0,Left,385,High
jou-cmand1DR-20201116,jo,5,557,12,2,Stop,Left,267,Left,210,High
jou-cmand1DR-20201116,jo,5,558,12,3,Go,Right,0,Right,327,Low
jou-cmand1DR-20201116,jo,5,559,12,4,Go,Right,0,Right,414,Low
jou-cmand1DR-20201116,jo,5,560,12,5,Go,Right,0,Right,323,Low
jou-cmand1DR-20201116,jo,5,561,12,6,Stop,Left,50,NoResponse,0,High
jou-cmand1DR-20201116,jo,5,562,12,7,Stop,Left,267,Left,275,High
jou-cmand1DR-20201116,jo,5,563,12,8,Stop,Right,133,NoResponse,0,Low
jou-cmand1DR-20201116,jo,5,564,12,9,Go,Right,0,Right,343,Low
jou-cmand1DR-20201116,jo,5,565,12,10,Go,Left,0,Left,228,High
jou-cmand1DR-20201116,jo,5,566,12,11,Go,Left,0,Left,266,High
jou-cmand1DR-20201116,jo,5,567,12,12,Go,Right,0,Right,262,Low
jou-cmand1DR-20201116,jo,5,568,12,13,Go,Right,0,Right,223,Low
jou-cmand1DR-20201116,jo,5,569,12,14,Go,Left,0,Left,213,High
jou-cmand1DR-20201116,jo,5,570,12,15,Stop,Left,200,Left,223,High
jou-cmand1DR-20201116,jo,5,571,12,16,Go,Right,0,Right,289,Low
jou-cmand1DR-20201116,jo,5,572,12,17,Go,Left,0,Left,243,High
jou-cmand1DR-20201116,jo,5,573,12,18,Go,Left,0,Left,221,High
jou-cmand1DR-20201116,jo,5,574,12,19,Go,Right,0,Right,339,Low
jou-cmand1DR-20201116,jo,5,575,12,20,Stop,Left,133,NoStart,0,High
jou-cmand1DR-20201116,jo,5,576,12,21,Stop,Right,133,NoResponse,0,Low
jou-cmand1DR-20201116,jo,5,577,12,22,Go,Right,0,NoStart,0,Low
jou-cmand1DR-20201116,jo,5,578,12,23,Go,Right,0,Right,314,Low
jou-cmand1DR-20201116,jo,5,579,12,24,Go,Left,0,Left,271,High
jou-cmand1DR-20201116,jo,5,580,12,25,Go,Right,0,NoStart,0,Low
jou-cmand1DR-20201116,jo,5,581,12,26,Go,Left,0,Left,244,High
jou-cmand1DR-20201116,jo,5,582,12,27,Stop,Right,483,Right,262,Low
jou-cmand1DR-20201116,jo,5,583,12,28,Go,Left,0,Left,248,High
jou-cmand1DR-20201116,jo,5,584,12,29,Go,Right,0,Right,318,Low
jou-cmand1DR-20201116,jo,5,585,12,30,Go,Left,0,Left,222,High
jou-cmand1DR-20201116,jo,5,586,12,31,Go,Left,0,Left,262,High
jou-cmand1DR-20201116,jo,5,587,12,32,Stop,Left,333,Left,235,High
jou-cmand1DR-20201116,jo,5,588,12,33,Stop,Left,267,Left,256,High
jou-cmand1DR-20201116,jo,5,589,12,34,Go,Left,0,Left,252,High
jou-cmand1DR-20201116,jo,5,590,12,35,Go,Left,0,Left,259,High
jou-cmand1DR-20201116,jo,5,591,13,1,Go,Right,0,Right,342,High
jou-cmand1DR-20201116,jo,5,592,13,2,Go,Right,0,Right,234,High
jou-cmand1DR-20201116,jo,5,593,13,3,Go,Left,0,NoStart,0,Low
jou-cmand1DR-20201116,jo,5,594,13,4,Go,Left,0,Left,325,Low
jou-cmand1DR-20201116,jo,5,595,13,5,Go,Right,0,Right,225,High
jou-cmand1DR-20201116,jo,5,596,13,6,Stop,Right,133,NoStart,0,High
jou-cmand1DR-20201116,jo,5,597,13,7,Go,Left,0,Left,361,Low
jou-cmand1DR-20201116,jo,5,598,13,8,Go,Left,0,NoStart,0,Low
jou-cmand1DR-20201116,jo,5,599,13,9,Go,Left,0,Left,269,Low
jou-cmand1DR-20201116,jo,5,600,13,10,Go,Right,0,Right,242,High
jou-cmand1DR-20201116,jo,5,601,13,11,Go,Right,0,Right,253,High
jou-cmand1DR-20201116,jo,5,602,13,12,Go,Left,0,Left,377,Low
jou-cmand1DR-20201116,jo,5,603,13,13,Go,Right,0,Right,258,High
jou-cmand1DR-20201116,jo,5,604,13,14,Go,Left,0,Left,320,Low
jou-cmand1DR-20201116,jo,5,605,13,15,Go,Right,0,Right,277,High
jou-cmand1DR-20201116,jo,5,606,13,16,Go,Left,0,Left,341,Low
jou-cmand1DR-20201116,jo,5,607,13,17,Stop,Right,483,Right,250,High
jou-cmand1DR-20201116,jo,5,608,13,18,Go,Left,0,Left,335,Low
jou-cmand1DR-20201116,jo,5,609,13,19,Go,Left,0,Left,359,Low
jou-cmand1DR-20201116,jo,5,610,13,20,Stop,Right,267,Right,235,High
jou-cmand1DR-20201116,jo,5,611,13,21,Go,Right,0,Right,251,High
jou-cmand1DR-20201116,jo,5,612,13,22,Go,Right,0,Right,252,High
jou-cmand1DR-20201116,jo,5,613,13,23,Go,Left,0,Left,304,Low
jou-cmand1DR-20201116,jo,5,614,13,24,Go,Left,0,Left,308,Low
jou-cmand1DR-20201116,jo,5,615,13,25,Go,Left,0,Left,294,Low
jou-cmand1DR-20201116,jo,5,616,13,26,Stop,Left,133,NoResponse,0,Low
jou-cmand1DR-20201116,jo,5,617,13,27,Stop,Left,200,Left,276,Low
jou-cmand1DR-20201116,jo,5,618,13,28,Stop,Left,50,NoResponse,0,Low
jou-cmand1DR-20201116,jo,5,619,13,29,Stop,Right,200,Right,242,High
jou-cmand1DR-20201116,jo,5,620,13,30,Go,Left,0,Left,429,Low
jou-cmand1DR-20201116,jo,5,621,13,31,Stop,Right,50,NoStart,0,High
jou-cmand1DR-20201116,jo,5,622,13,32,Go,Right,0,Right,312,High
jou-cmand1DR-20201116,jo,5,623,13,33,Stop,Left,50,NoResponse,0,Low
jou-cmand1DR-20201116,jo,5,624,13,34,Go,Left,0,Left,324,Low
jou-cmand1DR-20201116,jo,5,625,13,35,Go,Left,0,Left,421,Low
jou-cmand1DR-20201116,jo,5,626,13,36,Go,Right,0,Right,250,High
jou-cmand1DR-20201116,jo,5,627,13,37,Go,Right,0,Right,295,High
jou-cmand1DR-20201116,jo,5,628,13,38,Go,Right,0,Right,322,High
jou-cmand1DR-20201116,jo,5,629,13,39,Go,Right,0,Right,279,High
jou-cmand1DR-20201116,jo,5,630,14,1,Stop,Right,267,Right,288,Low
jou-cmand1DR-20201116,jo,5,631,14,2,Go,Right,0,Right,303,Low
jou-cmand1DR-20201116,jo,5,632,14,3,Go,Left,0,Left,299,High
jou-cmand1DR-20201116,jo,5,633,14,4,Go,Left,0,Left,262,High
jou-cmand1DR-20201116,jo,5,634,14,5,Stop,Right,50,NoResponse,0,Low
jou-cmand1DR-20201116,jo,5,635,14,6,Go,Left,0,Left,211,High
jou-cmand1DR-20201116,jo,5,636,14,7,Go,Left,0,Left,304,High
jou-cmand1DR-20201116,jo,5,637,14,8,Go,Left,0,Left,268,High
jou-cmand1DR-20201116,jo,5,638,14,9,Stop,Left,133,NoResponse,0,High
jou-cmand1DR-20201116,jo,5,639,14,10,Go,Right,0,Right,418,Low
jou-cmand1DR-20201116,jo,5,640,14,11,Go,Left,0,Left,238,High
jou-cmand1DR-20201116,jo,5,641,14,12,Stop,Right,333,Right,264,Low
jou-cmand1DR-20201116,jo,5,642,14,13,Stop,Right,133,NoResponse,0,Low
jou-cmand1DR-20201116,jo,5,643,14,14,Stop,Left,267,Left,222,High
jou-cmand1DR-20201116,jo,5,644,14,15,Stop,Right,133,NoResponse,0,Low
jou-cmand1DR-20201116,jo,5,645,14,16,Go,Left,0,Left,232,High
jou-cmand1DR-20201116,jo,5,646,14,17,Go,Left,0,Left,233,High
jou-cmand1DR-20201116,jo,5,647,14,18,Stop,Left,200,Left,262,High
jou-cmand1DR-20201116,jo,5,648,14,19,Go,Left,0,Left,231,High
jou-cmand1DR-20201116,jo,5,649,15,1,Go,Left,0,Left,263,Low
jou-cmand1DR-20201116,jo,5,650,15,2,Go,Left,0,Left,230,Low
jou-cmand1DR-20201116,jo,5,651,15,3,Stop,Left,50,NoStart,0,Low
jou-cmand1DR-20201116,jo,5,652,15,4,Stop,Left,50,NoStart,0,Low
jou-cmand1DR-20201116,jo,5,653,15,5,Go,Left,0,Left,509,Low
jou-cmand1DR-20201116,jo,5,654,15,6,Go,Right,0,Right,241,High
jou-cmand1DR-20201116,jo,5,655,15,7,Go,Left,0,Left,317,Low
jou-cmand1DR-20201116,jo,5,656,15,8,Go,Right,0,Right,197,High
jou-cmand1DR-20201116,jo,5,657,15,9,Stop,Left,50,NoResponse,0,Low
jou-cmand1DR-20201116,jo,5,658,15,10,Go,Left,0,Left,294,Low
jou-cmand1DR-20201116,jo,5,659,15,11,Stop,Right,200,Right,225,High
jou-cmand1DR-20201116,jo,5,660,15,12,Stop,Right,50,NoResponse,0,High
jou-cmand1DR-20201116,jo,5,661,15,13,Go,Left,0,Left,574,Low
jou-cmand1DR-20201116,jo,5,662,15,14,Go,Right,0,Right,269,High
jou-cmand1DR-20201116,jo,5,663,15,15,Go,Right,0,Right,260,High
jou-cmand1DR-20201116,jo,5,664,15,16,Go,Right,0,Right,261,High
jou-cmand1DR-20201116,jo,5,665,15,17,Stop,Right,333,Right,285,High
jou-cmand1DR-20201116,jo,5,666,15,18,Stop,Left,267,Left,288,Low
jou-cmand1DR-20201116,jo,5,667,15,19,Go,Right,0,Right,299,High
jou-cmand1DR-20201116,jo,5,668,15,20,Go,Right,0,Right,252,High
jou-cmand1DR-20201116,jo,5,669,15,21,Stop,Left,200,Left,265,Low
jou-cmand1DR-20201116,jo,5,670,15,22,Go,Right,0,Right,270,High
jou-cmand1DR-20201116,jo,5,671,15,23,Go,Left,0,Left,280,Low
jou-cmand1DR-20201116,jo,5,672,15,24,Go,Right,0,Right,258,High
jou-cmand1DR-20201116,jo,5,673,15,25,Go,Right,0,Right,272,High
jou-cmand1DR-20201116,jo,5,674,15,26,Go,Right,0,Right,287,High
jou-cmand1DR-20201116,jo,5,675,15,27,Go,Left,0,Left,279,Low
jou-cmand1DR-20201116,jo,5,676,15,28,Stop,Right,133,NoStart,0,High
jou-cmand1DR-20201116,jo,5,677,15,29,Go,Left,0,NoStart,0,Low
jou-cmand1DR-20201116,jo,5,678,15,30,Go,Right,0,Right,391,High
jou-cmand1DR-20201116,jo,5,679,15,31,Go,Right,0,Right,351,High
jou-cmand1DR-20201116,jo,5,680,15,32,Go,Right,0,Right,444,High
jou-cmand1DR-20201116,jo,5,681,15,33,Go,Left,0,Left,274,Low
jou-cmand1DR-20201116,jo,5,682,15,34,Stop,Left,333,Left,323,Low
jou-cmand1DR-20201116,jo,5,683,15,35,Go,Right,0,Right,289,High
jou-cmand1DR-20201116,jo,5,684,15,36,Go,Right,0,Right,262,High
jou-cmand1DR-20201116,jo,5,685,15,37,Stop,Right,200,Right,263,High
jou-cmand1DR-20201116,jo,5,686,15,38,Stop,Left,50,NoStart,0,Low
jou-cmand1DR-20201116,jo,5,687,15,39,Stop,Right,50,NoStart,0,High
jou-cmand1DR-20201116,jo,5,688,15,40,Go,Left,0,NoStart,0,Low
jou-cmand1DR-20201116,jo,5,689,15,41,Go,Left,0,Left,398,Low
jou-cmand1DR-20201116,jo,5,690,15,42,Go,Right,0,Right,293,High
jou-cmand1DR-20201116,jo,5,691,15,43,Go,Right,0,Right,260,High
jou-cmand1DR-20201116,jo,5,692,15,44,Go,Right,0,Right,320,High
jou-cmand1DR-20201116,jo,5,693,15,45,Go,Right,0,Right,372,High
jou-cmand1DR-20201116,jo,5,694,15,46,Go,Left,0,Left,349,Low
jou-cmand1DR-20201116,jo,5,695,15,47,Stop,Right,200,NoResponse,0,High
jou-cmand1DR-20201116,jo,5,696,16,1,Go,Right,0,Right,414,Low
jou-cmand1DR-20201116,jo,5,697,16,2,Go,Left,0,Left,229,High
jou-cmand1DR-20201116,jo,5,698,16,3,Go,Left,0,NoStart,0,High
jou-cmand1DR-20201116,jo,5,699,16,4,Go,Left,0,Left,205,High
jou-cmand1DR-20201116,jo,5,700,16,5,Stop,Left,400,Left,244,High
jou-cmand1DR-20201116,jo,5,701,16,6,Go,Right,0,Right,376,Low
jou-cmand1DR-20201116,jo,5,702,16,7,Go,Right,0,Right,531,Low
jou-cmand1DR-20201116,jo,5,703,16,8,Stop,Right,267,NoStart,0,Low
jou-cmand1DR-20201116,jo,5,704,16,9,Go,Left,0,Left,220,High
jou-cmand1DR-20201116,jo,5,705,16,10,Go,Right,0,Right,311,Low
jou-cmand1DR-20201116,jo,5,706,16,11,Stop,Left,200,Left,248,High
jou-cmand1DR-20201116,jo,5,707,16,12,Go,Right,0,Right,439,Low
jou-cmand1DR-20201116,jo,5,708,16,13,Go,Right,0,Right,370,Low
jou-cmand1DR-20201116,jo,5,709,16,14,Go,Right,0,Right,320,Low
jou-cmand1DR-20201116,jo,5,710,16,15,Stop,Left,50,NoResponse,0,High
jou-cmand1DR-20201116,jo,5,711,16,16,Go,Left,0,Left,243,High
jou-cmand1DR-20201116,jo,5,712,16,17,Go,Left,0,Left,263,High
jou-cmand1DR-20201116,jo,5,713,16,18,Go,Left,0,Left,241,High
jou-cmand1DR-20201116,jo,5,714,16,19,Stop,Right,133,NoResponse,0,Low
jou-cmand1DR-20201116,jo,5,715,16,20,Stop,Left,200,Left,243,High
jou-cmand1DR-20201116,jo,5,716,16,21,Stop,Left,50,NoResponse,0,High
jou-cmand1DR-20201116,jo,5,717,16,22,Go,Right,0,Right,355,Low
jou-cmand1DR-20201116,jo,5,718,16,23,Go,Left,0,NoStart,0,High
jou-cmand1DR-20201116,jo,5,719,16,24,Go,Left,0,Left,227,High
jou-cmand1DR-20201116,jo,5,720,16,25,Stop,Right,200,Right,247,Low
jou-cmand1DR-20201116,jo,5,721,16,26,Go,Left,0,Left,257,High
jou-cmand1DR-20201116,jo,5,722,16,27,Stop,Right,50,NoResponse,0,Low
jou-cmand1DR-20201116,jo,5,723,17,1,Go,Right,0,NoStart,0,High
jou-cmand1DR-20201116,jo,5,724,17,2,Go,Left,0,NoStart,0,Low
jou-cmand1DR-20201116,jo,5,725,17,3,Stop,Left,267,NoStart,0,Low
jou-cmand1DR-20201116,jo,5,726,17,4,Go,Right,0,Right,252,High
jou-cmand1DR-20201116,jo,5,727,17,5,Go,Right,0,Right,253,High
jou-cmand1DR-20201116,jo,5,728,17,6,Stop,Right,333,Right,255,High
jou-cmand1DR-20201116,jo,5,729,17,7,Go,Right,0,Right,226,High
jou-cmand1DR-20201116,jo,5,730,17,8,Go,Left,0,Left,293,Low
jou-cmand1DR-20201116,jo,5,731,17,9,Stop,Left,267,NoResponse,0,Low
jou-cmand1DR-20201116,jo,5,732,17,10,Stop,Left,483,Left,274,Low
jou-cmand1DR-20201116,jo,5,733,17,11,Stop,Right,333,Right,254,High
jou-cmand1DR-20201116,jo,5,734,17,12,Stop,Left,267,Left,277,Low
jou-cmand1DR-20201116,jo,5,735,17,13,Go,Left,0,NoStart,0,Low
jou-cmand1DR-20201116,jo,5,736,17,14,Go,Left,0,NoStart,0,Low
jou-cmand1DR-20201116,jo,5,737,17,15,Stop,Right,50,NoStart,0,High
jou-cmand1DR-20201116,jo,5,738,17,16,Go,Right,0,NoStart,0,High
jou-cmand1DR-20201116,jo,5,739,17,17,Stop,Right,50,NoStart,0,High
jou-cmand1DR-20201116,jo,5,740,17,18,Go,Left,0,Left,300,Low
jou-cmand1DR-20201116,jo,5,741,17,19,Go,Right,0,Right,230,High
jou-cmand1DR-20201116,jo,5,742,17,20,Stop,Left,50,NoResponse,0,Low
jou-cmand1DR-20201116,jo,5,743,17,21,Go,Right,0,Right,242,High
jou-cmand1DR-20201116,jo,5,744,17,22,Go,Right,0,Right,295,High
jou-cmand1DR-20201116,jo,5,745,17,23,Stop,Right,267,Right,227,High
jou-cmand1DR-20201116,jo,5,746,17,24,Go,Left,0,Left,315,Low
jou-cmand1DR-20201116,jo,5,747,17,25,Go,Right,0,Right,280,High
jou-cmand1DR-20201116,jo,5,748,17,26,Go,Right,0,NoStart,0,High
jou-cmand1DR-20201116,jo,5,749,17,27,Go,Left,0,Left,394,Low
jou-cmand1DR-20201116,jo,5,750,17,28,Go,Left,0,Left,355,Low
jou-cmand1DR-20201116,jo,5,751,17,29,Go,Left,0,Left,323,Low
jou-cmand1DR-20201116,jo,5,752,17,30,Stop,Right,50,NoResponse,0,High
jou-cmand1DR-20201116,jo,5,753,17,31,Stop,Right,200,NoResponse,0,High
jou-cmand1DR-20201116,jo,5,754,17,32,Stop,Left,267,NoStart,0,Low
jou-cmand1DR-20201116,jo,5,755,17,33,Go,Right,0,Right,246,High
jou-cmand1DR-20201116,jo,5,756,17,34,Go,Right,0,Right,313,High
jou-cmand1DR-20201116,jo,5,757,17,35,Go,Left,0,Left,276,Low
jou-cmand1DR-20201116,jo,5,758,17,36,Stop,Right,267,Right,260,High
jou-cmand1DR-20201116,jo,5,759,17,37,Go,Right,0,Right,326,High
jou-cmand1DR-20201116,jo,5,760,17,38,Go,Right,0,Right,304,High
jou-cmand1DR-20201116,jo,5,761,17,39,Stop,Left,133,NoStart,0,Low
jou-cmand1DR-20201116,jo,5,762,17,40,Stop,Right,133,NoResponse,0,High
jou-cmand1DR-20201116,jo,5,763,17,41,Go,Left,0,Left,267,Low
jou-cmand1DR-20201116,jo,5,764,17,42,Go,Right,0,Right,339,High
jou-cmand1DR-20201116,jo,5,765,17,43,Go,Right,0,Right,296,High
jou-cmand1DR-20201116,jo,5,766,17,44,Stop,Right,333,Right,301,High
jou-cmand1DR-20201116,jo,5,767,17,45,Go,Left,0,Left,278,Low
jou-cmand1DR-20201116,jo,5,768,17,46,Go,Right,0,Right,273,High
jou-cmand1DR-20201116,jo,5,769,17,47,Go,Right,0,Right,319,High
jou-cmand1DR-20201116,jo,5,770,17,48,Go,Left,0,Left,377,Low
jou-cmand1DR-20201116,jo,5,771,17,49,Stop,Left,200,NoResponse,0,Low
jou-cmand1DR-20201116,jo,5,772,18,1,Go,Right,0,Right,344,Low
jou-cmand1DR-20201116,jo,5,773,18,2,Go,Right,0,Right,347,Low
jou-cmand1DR-20201116,jo,5,774,18,3,Stop,Right,400,NoStart,0,Low
jou-cmand1DR-20201116,jo,5,775,18,4,Go,Left,0,Left,234,High
jou-cmand1DR-20201116,jo,5,776,18,5,Go,Right,0,Right,453,Low
jou-cmand1DR-20201116,jo,5,777,18,6,Go,Left,0,Left,219,High
jou-cmand1DR-20201116,jo,5,778,18,7,Stop,Right,400,Right,443,Low
jou-cmand1DR-20201116,jo,5,779,18,8,Stop,Left,333,Left,221,High
jou-cmand1DR-20201116,jo,5,780,18,9,Go,Right,0,Right,336,Low
jou-cmand1DR-20201116,jo,5,781,18,10,Stop,Right,133,NoStart,0,Low
jou-cmand1DR-20201116,jo,5,782,18,11,Go,Left,0,Left,275,High
jou-cmand1DR-20201116,jo,5,783,18,12,Stop,Left,133,NoStart,0,High
jou-cmand1DR-20201116,jo,5,784,18,13,Go,Left,0,Left,224,High
jou-cmand1DR-20201116,jo,5,785,18,14,Go,Left,0,Left,256,High
jou-cmand1DR-20201116,jo,5,786,18,15,Go,Left,0,Left,240,High
jou-cmand1DR-20201116,jo,5,787,18,16,Stop,Right,133,NoResponse,0,Low
jou-cmand1DR-20201116,jo,5,788,18,17,Stop,Left,333,Left,249,High
jou-cmand1DR-20201116,jo,5,789,18,18,Stop,Right,133,NoResponse,0,Low
jou-cmand1DR-20201116,jo,5,790,18,19,Stop,Left,333,Left,388,High
jou-cmand1DR-20201116,jo,5,791,18,20,Stop,Left,200,NoStart,0,High
jou-cmand1DR-20201116,jo,5,792,18,21,Go,Right,0,Right,284,Low
jou-cmand1DR-20201116,jo,5,793,18,22,Go,Right,0,Right,366,Low
jou-cmand1DR-20201116,jo,5,794,18,23,Go,Right,0,Right,378,Low
jou-cmand1DR-20201116,jo,5,795,18,24,Stop,Right,200,NoStart,0,Low
jou-cmand1DR-20201116,jo,5,796,18,25,Stop,Left,200,Left,248,High
jou-cmand1DR-20201116,jo,5,797,18,26,Stop,Left,50,NoResponse,0,High
jou-cmand1DR-20201116,jo,5,798,18,27,Stop,Right,200,NoResponse,0,Low
jou-cmand1DR-20201116,jo,5,799,18,28,Go,Left,0,NoStart,0,High
jou-cmand1DR-20201116,jo,5,800,18,29,Go,Right,0,Right,465,Low
jou-cmand1DR-20201116,jo,5,801,18,30,Go,Left,0,Left,262,High
jou-cmand1DR-20201116,jo,5,802,18,31,Go,Right,0,Right,341,Low
jou-cmand1DR-20201116,jo,5,803,18,32,Go,Right,0,Right,424,Low
jou-cmand1DR-20201116,jo,5,804,18,33,Go,Left,0,Left,238,High
jou-cmand1DR-20201116,jo,5,805,18,34,Go,Right,0,Right,278,Low
jou-cmand1DR-20201116,jo,5,806,18,35,Go,Left,0,Left,256,High
jou-cmand1DR-20201116,jo,5,807,18,36,Stop,Left,267,Left,256,High
jou-cmand1DR-20201116,jo,5,808,18,37,Go,Right,0,Right,303,Low
jou-cmand1DR-20201116,jo,5,809,18,38,Stop,Left,200,Left,248,High
jou-cmand1DR-20201116,jo,5,810,18,39,Stop,Right,50,NoResponse,0,Low
jou-cmand1DR-20201116,jo,5,811,18,40,Go,Right,0,Right,336,Low
jou-cmand1DR-20201116,jo,5,812,19,1,Stop,Right,133,NoStart,0,High
jou-cmand1DR-20201116,jo,5,813,19,2,Go,Right,0,Right,285,High
jou-cmand1DR-20201116,jo,5,814,19,3,Go,Right,0,Right,272,High
jou-cmand1DR-20201116,jo,5,815,19,4,Stop,Right,133,NoStart,0,High
jou-cmand1DR-20201116,jo,5,816,19,5,Go,Left,0,Left,360,Low
jou-cmand1DR-20201116,jo,5,817,19,6,Stop,Right,133,NoResponse,0,High
jou-cmand1DR-20201116,jo,5,818,19,7,Stop,Left,333,Left,393,Low
jou-cmand1DR-20201116,jo,5,819,19,8,Go,Right,0,Right,339,High
jou-cmand1DR-20201116,jo,5,820,19,9,Go,Right,0,Right,306,High
jou-cmand1DR-20201116,jo,5,821,19,10,Go,Right,0,Right,312,High
jou-cmand1DR-20201116,jo,5,822,19,11,Go,Left,0,Left,318,Low
jou-cmand1DR-20201116,jo,5,823,19,12,Stop,Right,200,NoResponse,0,High
jou-cmand1DR-20201116,jo,5,824,19,13,Go,Right,0,Right,313,High
jou-cmand1DR-20201116,jo,5,825,19,14,Stop,Right,333,Right,279,High
jou-cmand1DR-20201116,jo,5,826,19,15,Stop,Left,133,NoStart,0,Low
jou-cmand1DR-20201116,jo,5,827,19,16,Go,Left,0,Left,372,Low
jou-cmand1DR-20201116,jo,5,828,19,17,Go,Right,0,Right,269,High
jou-cmand1DR-20201116,jo,5,829,19,18,Go,Left,0,Left,305,Low
jou-cmand1DR-20201116,jo,5,830,19,19,Stop,Left,133,NoResponse,0,Low
jou-cmand1DR-20201116,jo,5,831,20,1,Go,Left,0,Left,370,High
jou-cmand1DR-20201116,jo,5,832,20,2,Go,Right,0,Right,490,Low
jou-cmand1DR-20201116,jo,5,833,20,3,Stop,Right,333,Right,287,Low
jou-cmand1DR-20201116,jo,5,834,20,4,Stop,Left,200,Left,267,High
jou-cmand1DR-20201116,jo,5,835,20,5,Stop,Right,50,NoStart,0,Low
jou-cmand1DR-20201116,jo,5,836,20,6,Stop,Left,50,NoStart,0,High
jou-cmand1DR-20201116,jo,5,837,20,7,Go,Right,0,Right,279,Low
jou-cmand1DR-20201116,jo,5,838,20,8,Go,Right,0,Right,347,Low
jou-cmand1DR-20201116,jo,5,839,20,9,Stop,Left,50,NoResponse,0,High
jou-cmand1DR-20201116,jo,5,840,20,10,Stop,Right,133,NoResponse,0,Low
jou-cmand1DR-20201116,jo,5,841,20,11,Stop,Right,267,NoResponse,0,Low
jou-cmand1DR-20201116,jo,5,842,20,12,Go,Right,0,Right,582,Low
jou-cmand1DR-20201116,jo,5,843,20,13,Stop,Right,333,NoResponse,0,Low
jou-cmand1DR-20201116,jo,5,844,20,14,Go,Left,0,Left,248,High
jou-cmand1DR-20201116,jo,5,845,20,15,Go,Left,0,Left,236,High
jou-cmand1DR-20201116,jo,5,846,20,16,Go,Right,0,Right,475,Low
jou-cmand1DR-20201116,jo,5,847,20,17,Go,Left,0,Left,222,High
jou-cmand1DR-20201116,jo,5,848,20,18,Stop,Left,400,Left,237,High
jou-cmand1DR-20201116,jo,5,849,20,19,Go,Left,0,Left,235,High
jou-cmand1DR-20201116,jo,5,850,20,20,Go,Left,0,Left,274,High
jou-cmand1DR-20201116,jo,5,851,20,21,Stop,Left,200,NoStart,0,High
jou-cmand1DR-20201116,jo,5,852,20,22,Go,Left,0,Left,227,High
jou-cmand1DR-20201116,jo,5,853,20,23,Go,Left,0,Left,274,High
jou-cmand1DR-20201116,jo,5,854,20,24,Stop,Left,200,Left,237,High
jou-cmand1DR-20201116,jo,5,855,20,25,Go,Right,0,Right,473,Low
jou-cmand1DR-20201116,jo,5,856,21,1,Go,Left,0,Left,290,Low
jou-cmand1DR-20201116,jo,5,857,21,2,Go,Right,0,Right,269,High
jou-cmand1DR-20201116,jo,5,858,21,3,Stop,Left,50,NoResponse,0,Low
jou-cmand1DR-20201116,jo,5,859,21,4,Go,Right,0,Right,297,High
jou-cmand1DR-20201116,jo,5,860,21,5,Go,Left,0,NoStart,0,Low
jou-cmand1DR-20201116,jo,5,861,21,6,Go,Left,0,Left,293,Low
jou-cmand1DR-20201116,jo,5,862,21,7,Stop,Left,267,NoResponse,0,Low
jou-cmand1DR-20201116,jo,5,863,21,8,Go,Left,0,NoStart,0,Low
jou-cmand1DR-20201116,jo,5,864,21,9,Go,Left,0,NoStart,0,Low
jou-cmand1DR-20201116,jo,5,865,21,10,Stop,Right,400,NoStart,0,High
jou-cmand1DR-20201116,jo,5,866,21,11,Stop,Left,483,NoStart,0,Low
jou-cmand1DR-20201116,jo,5,867,21,12,Go,Right,0,NoStart,0,High
jou-cmand1DR-20201116,jo,5,868,21,13,Go,Right,0,NoStart,0,High
jou-cmand1DR-20201116,jo,5,869,21,14,Go,Left,0,NoStart,0,Low
jou-cmand1DR-20201116,jo,5,870,21,15,Stop,Right,483,NoStart,0,High
jou-cmand1DR-20201116,jo,5,871,21,16,Stop,Right,483,Right,348,High
jou-cmand1DR-20201116,jo,5,872,21,17,Stop,Right,267,Right,267,High
jou-cmand1DR-20201116,jo,5,873,21,18,Stop,Left,200,NoResponse,0,Low
jou-cmand1DR-20201116,jo,5,874,21,19,Go,Left,0,Left,289,Low
jou-cmand1DR-20201116,jo,5,875,21,20,Go,Left,0,Left,415,Low
jou-cmand1DR-20201116,jo,5,876,21,21,Go,Left,0,Left,363,Low
jou-cmand1DR-20201116,jo,5,877,21,22,Go,Left,0,Left,483,Low
jou-cmand1DR-20201116,jo,5,878,21,23,Stop,Right,333,Right,225,High
jou-cmand1DR-20201116,jo,5,879,21,24,Stop,Right,133,NoStart,0,High
jou-cmand1DR-20201116,jo,5,880,21,25,Go,Left,0,NoStart,0,Low
jou-cmand1DR-20201116,jo,5,881,21,26,Stop,Left,50,NoStart,0,Low
jou-cmand1DR-20201116,jo,5,882,21,27,Go,Left,0,Left,308,Low
jou-cmand1DR-20201116,jo,5,883,21,28,Go,Right,0,Right,227,High
jou-cmand1DR-20201116,jo,5,884,21,29,Go,Left,0,Left,540,Low
jou-cmand1DR-20201116,jo,5,885,21,30,Go,Left,0,Left,280,Low
jou-cmand1DR-20201116,jo,5,886,21,31,Stop,Right,50,NoResponse,0,High
jou-cmand1DR-20201116,jo,5,887,21,32,Stop,Right,267,Right,267,High
jou-cmand1DR-20201116,jo,5,888,21,33,Go,Left,0,Left,409,Low
jou-cmand1DR-20201116,jo,5,889,21,34,Go,Left,0,Left,331,Low
jou-cmand1DR-20201116,jo,5,890,22,1,Go,Right,0,Right,479,Low
jou-cmand1DR-20201116,jo,5,891,22,2,Go,Right,0,Right,414,Low
jou-cmand1DR-20201116,jo,5,892,22,3,Go,Left,0,Left,255,High
jou-cmand1DR-20201116,jo,5,893,22,4,Stop,Right,200,NoResponse,0,Low
jou-cmand1DR-20201116,jo,5,894,22,5,Go,Left,0,Left,255,High
jou-cmand1DR-20201116,jo,5,895,22,6,Go,Left,0,Left,249,High
jou-cmand1DR-20201116,jo,5,896,22,7,Go,Left,0,Left,217,High
jou-cmand1DR-20201116,jo,5,897,22,8,Go,Left,0,Left,243,High
jou-cmand1DR-20201116,jo,5,898,22,9,Stop,Right,333,NoStart,0,Low
jou-cmand1DR-20201116,jo,5,899,22,10,Go,Left,0,Left,233,High
jou-cmand1DR-20201116,jo,5,900,22,11,Stop,Left,483,NoStart,0,High
jou-cmand1DR-20201116,jo,5,901,22,12,Go,Left,0,Left,243,High
jou-cmand1DR-20201116,jo,5,902,22,13,Stop,Right,483,Right,340,Low
jou-cmand1DR-20201116,jo,5,903,22,14,Go,Right,0,Right,479,Low
jou-cmand1DR-20201116,jo,5,904,22,15,Go,Left,0,Left,257,High
jou-cmand1DR-20201116,jo,5,905,23,1,Go,Left,0,Left,239,Low
jou-cmand1DR-20201116,jo,5,906,23,2,Go,Left,0,Left,352,Low
jou-cmand1DR-20201116,jo,5,907,23,3,Stop,Right,400,Right,300,High
jou-cmand1DR-20201116,jo,5,908,23,4,Go,Left,0,NoStart,0,Low
jou-cmand1DR-20201116,jo,5,909,23,5,Stop,Left,333,Left,325,Low
jou-cmand1DR-20201116,jo,5,910,23,6,Stop,Left,267,NoResponse,0,Low
jou-cmand1DR-20201116,jo,5,911,23,7,Stop,Right,483,Right,260,High
jou-cmand1DR-20201116,jo,5,912,23,8,Stop,Right,400,Right,248,High
jou-cmand1DR-20201116,jo,5,913,23,9,Go,Left,0,Left,440,Low
jou-cmand1DR-20201116,jo,5,914,23,10,Go,Left,0,Left,381,Low
jou-cmand1DR-20201116,jo,5,915,23,11,Stop,Left,200,NoResponse,0,Low
jou-cmand1DR-20201116,jo,5,916,23,12,Stop,Left,400,Left,412,Low
jou-cmand1DR-20201116,jo,5,917,23,13,Go,Left,0,Left,469,Low
jou-cmand1DR-20201116,jo,5,918,23,14,Go,Left,0,NoStart,0,Low
jou-cmand1DR-20201116,jo,5,919,23,15,Go,Right,0,NoStart,0,High
jou-cmand1DR-20201116,jo,5,920,23,16,Stop,Right,333,NoStart,0,High
jou-cmand1DR-20201116,jo,5,921,23,17,Stop,Right,200,Right,234,High
jou-cmand1DR-20201116,jo,5,922,23,18,Go,Right,0,Right,511,High
jou-cmand1DR-20201116,jo,5,923,23,19,Go,Left,0,Left,327,Low
jou-cmand1DR-20201116,jo,5,924,23,20,Go,Right,0,Right,282,High
jou-cmand1DR-20201116,jo,5,925,23,21,Go,Left,0,Left,689,Low
jou-cmand1DR-20201116,jo,5,926,23,22,Go,Left,0,Left,347,Low
jou-cmand1DR-20201116,jo,5,927,23,23,Stop,Left,133,NoStart,0,Low
jou-cmand1DR-20201116,jo,5,928,23,24,Stop,Right,50,NoResponse,0,High
jou-cmand1DR-20201116,jo,5,929,23,25,Stop,Right,133,NoResponse,0,High
jou-cmand1DR-20201116,jo,5,930,23,26,Go,Right,0,NoStart,0,High
jou-cmand1DR-20201116,jo,5,931,23,27,Go,Right,0,Right,445,High
jou-cmand1DR-20201116,jo,5,932,23,28,Stop,Left,267,NoStart,0,Low
jou-cmand1DR-20201116,jo,5,933,23,29,Stop,Left,333,Left,322,Low
jou-cmand1DR-20201116,jo,5,934,23,30,Go,Right,0,Right,259,High
jou-cmand1DR-20201116,jo,5,935,23,31,Go,Right,0,Right,344,High
jou-cmand1DR-20201116,jo,5,936,23,32,Go,Right,0,NoStart,0,High
jou-cmand1DR-20201116,jo,5,937,23,33,Go,Left,0,Left,313,Low
jou-cmand1DR-20201116,jo,5,938,23,34,Stop,Right,267,Right,306,High
jou-cmand1DR-20201116,jo,5,939,23,35,Go,Right,0,Right,263,High
jou-cmand1DR-20201116,jo,5,940,23,36,Go,Left,0,Left,323,Low
jou-cmand1DR-20201116,jo,5,941,23,37,Stop,Right,50,NoResponse,0,High
jou-cmand1DR-20201116,jo,5,942,23,38,Go,Right,0,Right,343,High
jou-cmand1DR-20201116,jo,5,943,23,39,Stop,Right,200,NoResponse,0,High
jou-cmand1DR-20201116,jo,5,944,23,40,Stop,Right,333,NoStart,0,High
jou-cmand1DR-20201116,jo,5,945,23,41,Stop,Right,400,Right,288,High
jou-cmand1DR-20201116,jo,5,946,23,42,Go,Left,0,NoStart,0,Low
jou-cmand1DR-20201116,jo,5,947,23,43,Go,Right,0,Right,287,High
jou-cmand1DR-20201116,jo,5,948,24,1,Go,Left,0,Left,298,High
jou-cmand1DR-20201116,jo,5,949,24,2,Stop,Left,267,Left,295,High
jou-cmand1DR-20201116,jo,5,950,24,3,Go,Left,0,Left,317,High
jou-cmand1DR-20201116,jo,5,951,24,4,Go,Right,0,Right,278,Low
jou-cmand1DR-20201116,jo,5,952,24,5,Go,Left,0,Left,255,High
jou-cmand1DR-20201116,jo,5,953,24,6,Stop,Left,200,Left,250,High
jou-cmand1DR-20201116,jo,5,954,24,7,Stop,Right,50,NoResponse,0,Low
jou-cmand1DR-20201116,jo,5,955,24,8,Go,Left,0,Left,247,High
jou-cmand1DR-20201116,jo,5,956,24,9,Go,Left,0,Left,391,High
jou-cmand1DR-20201116,jo,5,957,24,10,Go,Left,0,Left,210,High
jou-cmand1DR-20201116,jo,5,958,24,11,Go,Right,0,Right,494,Low
jou-cmand1DR-20201116,jo,5,959,24,12,Go,Right,0,Right,250,Low
jou-cmand1DR-20201116,jo,5,960,24,13,Go,Right,0,Right,445,Low
jou-cmand1DR-20201116,jo,5,961,24,14,Stop,Left,267,Left,242,High
jou-cmand1DR-20201116,jo,5,962,24,15,Go,Right,0,Right,213,Low
jou-cmand1DR-20201116,jo,5,963,24,16,Stop,Left,50,NoStart,0,High
jou-cmand1DR-20201116,jo,5,964,24,17,Go,Right,0,NoStart,0,Low
jou-cmand1DR-20201116,jo,5,965,24,18,Go,Left,0,Left,230,High
jou-cmand1DR-20201116,jo,5,966,24,19,Go,Left,0,NoStart,0,High
jou-cmand1DR-20201116,jo,5,967,24,20,Stop,Right,200,NoResponse,0,Low
jou-cmand1DR-20201116,jo,5,968,24,21,Go,Left,0,Left,376,High
jou-cmand1DR-20201116,jo,5,969,24,22,Go,Left,0,Left,240,High
jou-cmand1DR-20201116,jo,5,970,24,23,Go,Right,0,Right,315,Low
jou-cmand1DR-20201116,jo,5,971,24,24,Stop,Left,267,Left,310,High
jou-cmand1DR-20201116,jo,5,972,24,25,Go,Left,0,Left,258,High
jou-cmand1DR-20201116,jo,5,973,24,26,Go,Left,0,Left,225,High
jou-cmand1DR-20201116,jo,5,974,24,27,Go,Right,0,Right,302,Low
jou-cmand1DR-20201116,jo,5,975,24,28,Stop,Left,133,NoStart,0,High
jou-cmand1DR-20201116,jo,5,976,24,29,Stop,Left,133,NoStart,0,High
jou-cmand1DR-20201116,jo,5,977,24,30,Stop,Right,133,NoStart,0,Low
jou-cmand1DR-20201116,jo,5,978,24,31,Stop,Left,133,NoStart,0,High
jou-cmand1DR-20201116,jo,5,979,24,32,Go,Left,0,Left,274,High
jou-cmand1DR-20201116,jo,5,980,24,33,Stop,Left,133,NoResponse,0,High
jou-cmand1DR-20201116,jo,5,981,25,1,Go,Left,0,Left,219,Low
jou-cmand1DR-20201116,jo,5,982,25,2,Go,Right,0,Right,334,High
jou-cmand1DR-20201116,jo,5,983,25,3,Stop,Left,267,Left,297,Low
jou-cmand1DR-20201116,jo,5,984,25,4,Go,Left,0,Left,288,Low
jou-cmand1DR-20201116,jo,5,985,25,5,Go,Left,0,Left,391,Low
jou-cmand1DR-20201116,jo,5,986,25,6,Go,Right,0,Right,277,High
jou-cmand1DR-20201116,jo,5,987,25,7,Go,Right,0,Right,342,High
jou-cmand1DR-20201116,jo,5,988,25,8,Go,Left,0,Left,449,Low
jou-cmand1DR-20201116,jo,5,989,25,9,Go,Right,0,Right,284,High
jou-cmand1DR-20201116,jo,5,990,25,10,Stop,Right,50,NoStart,0,High
jou-cmand1DR-20201116,jo,5,991,25,11,Stop,Left,50,NoStart,0,Low
jou-cmand1DR-20201116,jo,5,992,25,12,Go,Right,0,Right,351,High
jou-cmand1DR-20201116,jo,5,993,25,13,Go,Left,0,Left,392,Low
jou-cmand1DR-20201116,jo,5,994,25,14,Go,Right,0,Right,291,High
jou-cmand1DR-20201116,jo,5,995,25,15,Go,Left,0,Left,352,Low
jou-cmand1DR-20201116,jo,5,996,25,16,Stop,Right,50,NoResponse,0,High
jou-cmand1DR-20201116,jo,5,997,25,17,Stop,Right,133,NoStart,0,High
jou-cmand1DR-20201116,jo,5,998,25,18,Go,Left,0,Left,293,Low
jou-cmand1DR-20201116,jo,5,999,25,19,Go,Left,0,Left,310,Low
jou-cmand1DR-20201116,jo,5,1000,25,20,Go,Right,0,Right,252,High
jou-cmand1DR-20201116,jo,5,1001,25,21,Go,Right,0,Right,232,High
jou-cmand1DR-20201116,jo,5,1002,25,22,Go,Right,0,Right,274,High
jou-cmand1DR-20201116,jo,5,1003,25,23,Go,Right,0,Right,230,High
jou-cmand1DR-20201116,jo,5,1004,25,24,Go,Left,0,Left,317,Low
jou-cmand1DR-20201116,jo,5,1005,25,25,Stop,Right,133,NoResponse,0,High
jou-cmand1DR-20201116,jo,5,1006,25,26,Go,Right,0,Right,271,High
jou-cmand1DR-20201116,jo,5,1007,25,27,Go,Left,0,Left,375,Low
jou-cmand1DR-20201116,jo,5,1008,25,28,Stop,Right,333,Right,238,High
jou-cmand1DR-20201116,jo,5,1009,25,29,Go,Left,0,Left,258,Low
jou-cmand1DR-20201116,jo,5,1010,25,30,Go,Left,0,Left,313,Low
jou-cmand1DR-20201116,jo,5,1011,25,31,Stop,Right,133,NoStart,0,High
jou-cmand1DR-20201116,jo,5,1012,25,32,Go,Right,0,Right,378,High
jou-cmand1DR-20201116,jo,5,1013,25,33,Go,Right,0,Right,268,High
jou-cmand1DR-20201116,jo,5,1014,25,34,Stop,Right,133,NoStart,0,High
jou-cmand1DR-20201116,jo,5,1015,25,35,Go,Left,0,Left,357,Low
jou-cmand1DR-20201116,jo,5,1016,25,36,Stop,Right,133,NoStart,0,High
jou-cmand1DR-20201116,jo,5,1017,25,37,Go,Left,0,NoStart,0,Low
jou-cmand1DR-20201116,jo,5,1018,25,38,Go,Right,0,Right,277,High
jou-cmand1DR-20201116,jo,5,1019,25,39,Go,Left,0,Left,354,Low
jou-cmand1DR-20201116,jo,5,1020,25,40,Stop,Right,133,NoStart,0,High
jou-cmand1DR-20201116,jo,5,1021,25,41,Go,Right,0,Right,288,High
jou-cmand1DR-20201116,jo,5,1022,25,42,Stop,Left,133,NoResponse,0,Low
jou-cmand1DR-20201116,jo,5,1023,26,1,Stop,Left,200,NoResponse,0,High
jou-cmand1DR-20201116,jo,5,1024,26,2,Go,Right,0,Right,444,Low
jou-cmand1DR-20201116,jo,5,1025,26,3,Stop,Left,267,Left,266,High
jou-cmand1DR-20201116,jo,5,1026,26,4,Go,Right,0,Right,533,Low
jou-cmand1DR-20201116,jo,5,1027,26,5,Go,Right,0,Right,344,Low
jou-cmand1DR-20201116,jo,5,1028,26,6,Go,Left,0,Left,223,High
jou-cmand1DR-20201116,jo,5,1029,26,7,Go,Left,0,Left,237,High
jou-cmand1DR-20201116,jo,5,1030,26,8,Stop,Left,200,Left,256,High
jou-cmand1DR-20201116,jo,5,1031,26,9,Go,Right,0,Right,342,Low
jou-cmand1DR-20201116,jo,5,1032,26,10,Go,Right,0,Right,386,Low
jou-cmand1DR-20201116,jo,5,1033,26,11,Go,Left,0,Left,266,High
jou-cmand1DR-20201116,jo,5,1034,26,12,Stop,Right,133,NoResponse,0,Low
jou-cmand1DR-20201116,jo,5,1035,26,13,Go,Right,0,Right,292,Low
jou-cmand1DR-20201116,jo,5,1036,26,14,Go,Right,0,Right,512,Low
jou-cmand1DR-20201116,jo,5,1037,26,15,Stop,Right,267,NoResponse,0,Low
jou-cmand1DR-20201116,jo,5,1038,26,16,Go,Right,0,Right,530,Low
jou-cmand1DR-20201116,jo,5,1039,26,17,Go,Left,0,Left,281,High
jou-cmand1DR-20201116,jo,5,1040,26,18,Go,Right,0,Right,378,Low
jou-cmand1DR-20201116,jo,5,1041,26,19,Go,Left,0,Left,273,High
jou-cmand1DR-20201116,jo,5,1042,26,20,Go,Left,0,Left,246,High
jou-cmand1DR-20201116,jo,5,1043,26,21,Stop,Right,400,Right,323,Low
jou-cmand1DR-20201116,jo,5,1044,26,22,Go,Left,0,Left,215,High
jou-cmand1DR-20201116,jo,5,1045,26,23,Stop,Left,200,NoStart,0,High
jou-cmand1DR-20201116,jo,5,1046,26,24,Go,Right,0,Right,395,Low
jou-cmand1DR-20201116,jo,5,1047,26,25,Stop,Right,200,NoResponse,0,Low
jou-cmand1DR-20201116,jo,5,1048,26,26,Go,Left,0,Left,231,High
jou-cmand1DR-20201116,jo,5,1049,26,27,Stop,Right,333,Right,332,Low
jou-cmand1DR-20201116,jo,5,1050,26,28,Go,Left,0,Left,241,High
jou-cmand1DR-20201116,jo,5,1051,26,29,Go,Right,0,Right,494,Low
jou-cmand1DR-20201116,jo,5,1052,26,30,Go,Right,0,Right,393,Low
jou-cmand1DR-20201116,jo,5,1053,27,1,Go,Right,0,Right,278,High
jou-cmand1DR-20201116,jo,5,1054,27,2,Stop,Right,133,NoResponse,0,High
jou-cmand1DR-20201116,jo,5,1055,27,3,Stop,Right,267,Right,321,High
jou-cmand1DR-20201116,jo,5,1056,27,4,Go,Right,0,Right,439,High
jou-cmand1DR-20201116,jo,5,1057,27,5,Go,Left,0,Left,357,Low
jou-cmand1DR-20201116,jo,5,1058,27,6,Go,Right,0,Right,295,High
jou-cmand1DR-20201116,jo,5,1059,27,7,Go,Right,0,Right,259,High
jou-cmand1DR-20201116,jo,5,1060,27,8,Go,Left,0,Left,351,Low
jou-cmand1DR-20201116,jo,5,1061,27,9,Stop,Right,50,NoResponse,0,High
jou-cmand1DR-20201116,jo,5,1062,27,10,Go,Right,0,Right,405,High
jou-cmand1DR-20201116,jo,5,1063,28,1,Go,Right,0,Right,243,Low
jou-cmand1DR-20201116,jo,5,1064,28,2,Go,Right,0,NoStart,0,Low
jou-cmand1DR-20201116,jo,5,1065,28,3,Go,Left,0,NoStart,0,High
jou-cmand1DR-20201116,jo,5,1066,28,4,Stop,Right,267,Right,277,Low
jou-cmand1DR-20201116,jo,5,1067,28,5,Go,Left,0,Left,238,High
jou-cmand1DR-20201116,jo,5,1068,28,6,Go,Left,0,NoStart,0,High
jou-cmand1DR-20201116,jo,5,1069,28,7,Stop,Right,200,NoStart,0,Low
jou-cmand1DR-20201116,jo,5,1070,28,8,Go,Right,0,NoStart,0,Low
jou-cmand1DR-20201116,jo,5,1071,28,9,Go,Right,0,NoStart,0,Low
jou-cmand1DR-20201116,jo,5,1072,28,10,Go,Left,0,Left,241,High
jou-cmand1DR-20201116,jo,5,1073,28,11,Stop,Right,200,NoResponse,0,Low
jou-cmand1DR-20201116,jo,5,1074,28,12,Stop,Right,400,Right,259,Low
jou-cmand1DR-20201116,jo,5,1075,28,13,Go,Right,0,Right,279,Low
jou-cmand1DR-20201116,jo,5,1076,28,14,Stop,Left,333,Left,250,High
jou-cmand1DR-20201116,jo,5,1077,28,15,Go,Right,0,Right,266,Low
jou-cmand1DR-20201116,jo,5,1078,28,16,Stop,Left,267,NoStart,0,High
jou-cmand1DR-20201116,jo,5,1079,28,17,Go,Left,0,Left,334,High
jou-cmand1DR-20201116,jo,5,1080,28,18,Go,Left,0,Left,259,High
jou-cmand1DR-20201116,jo,5,1081,28,19,Stop,Right,133,NoResponse,0,Low
jou-cmand1DR-20201116,jo,5,1082,28,20,Stop,Left,333,Left,248,High
jou-cmand1DR-20201116,jo,5,1083,28,21,Go,Left,0,Left,224,High
jou-cmand1DR-20201116,jo,5,1084,28,22,Go,Left,0,Left,275,High
jou-cmand1DR-20201116,jo,5,1085,28,23,Go,Right,0,Right,253,Low
jou-cmand1DR-20201116,jo,5,1086,29,1,Go,Left,0,Left,263,Low
jou-cmand1DR-20201116,jo,5,1087,29,2,Stop,Right,267,Right,218,High
jou-cmand1DR-20201116,jo,5,1088,29,3,Go,Right,0,Right,321,High
jou-cmand1DR-20201116,jo,5,1089,29,4,Stop,Right,50,NoStart,0,High
jou-cmand1DR-20201116,jo,5,1090,29,5,Stop,Right,50,NoStart,0,High
jou-cmand1DR-20201116,jo,5,1091,29,6,Go,Right,0,NoStart,0,High
jou-cmand1DR-20201116,jo,5,1092,29,7,Go,Left,0,Left,207,Low
jou-cmand1DR-20201116,jo,5,1093,29,8,Go,Left,0,Left,364,Low
jou-cmand1DR-20201116,jo,5,1094,29,9,Stop,Right,50,NoResponse,0,High
jou-cmand1DR-20201116,jo,5,1095,29,10,Go,Right,0,Right,302,High
jou-cmand1DR-20201116,jo,5,1096,29,11,Stop,Left,267,Left,329,Low
jou-cmand1DR-20201116,jo,5,1097,29,12,Go,Left,0,Left,291,Low
jou-cmand1DR-20201116,jo,5,1098,29,13,Stop,Left,200,NoResponse,0,Low
jou-cmand1DR-20201116,jo,5,1099,29,14,Go,Right,0,Right,214,High
jou-cmand1DR-20201116,jo,5,1100,29,15,Go,Left,0,Left,285,Low
jou-cmand1DR-20201116,jo,5,1101,29,16,Stop,Right,333,Right,276,High
jou-cmand1DR-20201116,jo,5,1102,29,17,Go,Right,0,Right,247,High
jou-cmand1DR-20201116,jo,5,1103,29,18,Go,Right,0,Right,296,High
jou-cmand1DR-20201116,jo,5,1104,29,19,Go,Right,0,Right,283,High
jou-cmand1DR-20201116,jo,5,1105,29,20,Go,Left,0,Left,355,Low
jou-cmand1DR-20201116,jo,5,1106,29,21,Go,Right,0,Right,234,High
jou-cmand1DR-20201116,jo,5,1107,29,22,Go,Left,0,Left,384,Low
jou-cmand1DR-20201116,jo,5,1108,29,23,Stop,Left,200,Left,256,Low
jou-cmand1DR-20201116,jo,5,1109,29,24,Go,Right,0,Right,259,High
jou-cmand1DR-20201116,jo,5,1110,29,25,Stop,Left,50,NoResponse,0,Low
jou-cmand1DR-20201116,jo,5,1111,29,26,Stop,Right,200,Right,245,High
jou-cmand1DR-20201116,jo,5,1112,29,27,Go,Right,0,Right,203,High
jou-cmand1DR-20201116,jo,5,1113,29,28,Go,Left,0,Left,218,Low
jou-cmand1DR-20201116,jo,5,1114,29,29,Go,Left,0,NoStart,0,Low
jou-cmand1DR-20201116,jo,5,1115,29,30,Stop,Left,133,NoResponse,0,Low
jou-cmand1DR-20201116,jo,5,1116,29,31,Stop,Left,333,Left,282,Low
jou-cmand1DR-20201116,jo,5,1117,29,32,Stop,Right,200,Right,249,High
jou-cmand1DR-20201116,jo,5,1118,29,33,Stop,Right,50,NoResponse,0,High
jou-cmand1DR-20201116,jo,5,1119,29,34,Stop,Left,133,NoResponse,0,Low
jou-cmand1DR-20201116,jo,5,1120,29,35,Stop,Left,200,NoStart,0,Low
jou-cmand1DR-20201116,jo,5,1121,29,36,Go,Left,0,Left,243,Low
jou-cmand1DR-20201116,jo,5,1122,29,37,Stop,Left,200,NoStart,0,Low
jou-cmand1DR-20201116,jo,5,1123,29,38,Go,Right,0,Right,209,High
jou-cmand1DR-20201116,jo,5,1124,29,39,Stop,Left,200,NoResponse,0,Low
jou-cmand1DR-20201116,jo,5,1125,29,40,Go,Left,0,Left,265,Low
jou-cmand1DR-20201116,jo,5,1126,30,1,Go,Left,0,Left,286,High
jou-cmand1DR-20201116,jo,5,1127,30,2,Go,Left,0,Left,215,High
jou-cmand1DR-20201116,jo,5,1128,30,3,Go,Right,0,Right,268,Low
jou-cmand1DR-20201116,jo,5,1129,30,4,Stop,Right,400,Right,321,Low
jou-cmand1DR-20201116,jo,5,1130,30,5,Stop,Left,200,Left,230,High
jou-cmand1DR-20201116,jo,5,1131,30,6,Go,Left,0,NoStart,0,High
jou-cmand1DR-20201116,jo,5,1132,30,7,Go,Right,0,Right,371,Low
jou-cmand1DR-20201116,jo,5,1133,30,8,Stop,Right,50,NoStart,0,Low
jou-cmand1DR-20201116,jo,5,1134,30,9,Go,Left,0,Left,219,High
jou-cmand1DR-20201116,jo,5,1135,30,10,Go,Left,0,Left,226,High
jou-cmand1DR-20201116,jo,5,1136,30,11,Go,Left,0,Left,258,High
jou-cmand1DR-20201116,jo,5,1137,30,12,Go,Right,0,Right,319,Low
jou-cmand1DR-20201116,jo,5,1138,30,13,Go,Left,0,Left,259,High
jou-cmand1DR-20201116,jo,5,1139,30,14,Stop,Right,50,NoResponse,0,Low
jou-cmand1DR-20201116,jo,5,1140,30,15,Go,Right,0,Right,312,Low
jou-cmand1DR-20201116,jo,5,1141,30,16,Go,Left,0,Left,276,High
jou-cmand1DR-20201116,jo,5,1142,30,17,Go,Left,0,Left,262,High
jou-cmand1DR-20201116,jo,5,1143,30,18,Go,Right,0,Right,289,Low
jou-cmand1DR-20201116,jo,5,1144,30,19,Stop,Left,200,Left,250,High
jou-cmand1DR-20201116,jo,5,1145,30,20,Stop,Left,50,NoStart,0,High
jou-cmand1DR-20201116,jo,5,1146,30,21,Go,Right,0,Right,519,Low
jou-cmand1DR-20201116,jo,5,1147,30,22,Go,Left,0,Left,221,High
jou-cmand1DR-20201116,jo,5,1148,30,23,Go,Right,0,Right,364,Low
jou-cmand1DR-20201116,jo,5,1149,31,1,Go,Left,0,Left,204,Low
jou-cmand1DR-20201116,jo,5,1150,31,2,Go,Left,0,Left,528,Low
jou-cmand1DR-20201116,jo,5,1151,31,3,Go,Left,0,Left,603,Low
jou-cmand1DR-20201116,jo,5,1152,31,4,Stop,Left,50,NoStart,0,Low
jou-cmand1DR-20201116,jo,5,1153,31,5,Go,Left,0,Left,467,Low
jou-cmand1DR-20201116,jo,5,1154,31,6,Go,Left,0,Left,396,Low
jou-cmand1DR-20201116,jo,5,1155,31,7,Go,Right,0,Right,262,High
jou-cmand1DR-20201116,jo,5,1156,31,8,Go,Left,0,Left,348,Low
jou-cmand1DR-20201116,jo,5,1157,31,9,Go,Left,0,Left,352,Low
jou-cmand1DR-20201116,jo,5,1158,31,10,Go,Left,0,Left,345,Low
jou-cmand1DR-20201116,jo,5,1159,31,11,Go,Right,0,Right,255,High
jou-cmand1DR-20201116,jo,5,1160,31,12,Stop,Left,50,NoResponse,0,Low
jou-cmand1DR-20201116,jo,5,1161,31,13,Go,Right,0,Right,258,High
jou-cmand1DR-20201116,jo,5,1162,31,14,Go,Right,0,Right,229,High
jou-cmand1DR-20201116,jo,5,1163,31,15,Stop,Left,200,NoStart,0,Low
jou-cmand1DR-20201116,jo,5,1164,31,16,Stop,Left,200,Left,258,Low
jou-cmand1DR-20201116,jo,5,1165,31,17,Go,Left,0,Left,292,Low
jou-cmand1DR-20201116,jo,5,1166,31,18,Stop,Left,50,NoStart,0,Low
jou-cmand1DR-20201116,jo,5,1167,31,19,Go,Left,0,Left,351,Low
jou-cmand1DR-20201116,jo,5,1168,31,20,Go,Left,0,Left,288,Low
jou-cmand1DR-20201116,jo,5,1169,31,21,Go,Left,0,Left,323,Low
jou-cmand1DR-20201116,jo,5,1170,31,22,Go,Left,0,Left,332,Low
jou-cmand1DR-20201116,jo,5,1171,31,23,Go,Right,0,Right,222,High
jou-cmand1DR-20201116,jo,5,1172,31,24,Stop,Right,50,NoResponse,0,High
jou-cmand1DR-20201116,jo,5,1173,31,25,Stop,Right,267,Right,285,High
jou-cmand1DR-20201116,jo,5,1174,31,26,Go,Left,0,Left,425,Low
jou-cmand1DR-20201116,jo,5,1175,31,27,Go,Right,0,Right,263,High
jou-cmand1DR-20201116,jo,5,1176,31,28,Go,Left,0,Left,329,Low
jou-cmand1DR-20201116,jo,5,1177,31,29,Go,Left,0,Left,373,Low
jou-cmand1DR-20201116,jo,5,1178,31,30,Go,Right,0,Right,278,High
jou-cmand1DR-20201116,jo,5,1179,31,31,Stop,Right,133,NoStart,0,High
jou-cmand1DR-20201116,jo,5,1180,31,32,Stop,Left,50,NoResponse,0,Low
jou-cmand1DR-20201116,jo,5,1181,31,33,Go,Right,0,Right,223,High
jou-cmand1DR-20201116,jo,5,1182,31,34,Go,Right,0,Right,283,High
jou-cmand1DR-20201116,jo,5,1183,31,35,Stop,Right,267,Right,269,High
jou-cmand1DR-20201116,jo,5,1184,31,36,Go,Left,0,Left,449,Low
jou-cmand1DR-20201116,jo,5,1185,31,37,Go,Right,0,Right,288,High
jou-cmand1DR-20201116,jo,5,1186,32,1,Stop,Right,50,NoStart,0,Low
jou-cmand1DR-20201116,jo,5,1187,32,2,Stop,Right,50,NoResponse,0,Low
jou-cmand1DR-20201116,jo,5,1188,32,3,Stop,Right,133,Right,221,Low
jou-cmand1DR-20201116,jo,5,1189,32,4,Go,Left,0,Left,208,High
jou-cmand1DR-20201116,jo,5,1190,32,5,Stop,Left,50,NoResponse,0,High
jou-cmand1DR-20201116,jo,5,1191,32,6,Go,Right,0,Right,475,Low
jou-cmand1DR-20201116,jo,5,1192,32,7,Go,Left,0,Left,233,High
jou-cmand1DR-20201116,jo,5,1193,32,8,Go,Left,0,Left,354,High
jou-cmand1DR-20201116,jo,5,1194,32,9,Go,Right,0,Right,492,Low
jou-cmand1DR-20201116,jo,5,1195,32,10,Go,Left,0,Left,258,High
jou-cmand1DR-20201116,jo,5,1196,32,11,Stop,Left,133,NoResponse,0,High
jou-cmand1DR-20201116,jo,5,1197,32,12,Go,Right,0,Right,536,Low
jou-cmand1DR-20201116,jo,5,1198,32,13,Go,Right,0,Right,341,Low
jou-cmand1DR-20201116,jo,5,1199,32,14,Stop,Left,200,Left,236,High
jou-cmand1DR-20201116,jo,5,1200,32,15,Go,Left,0,Left,230,High
jou-cmand1DR-20201116,jo,5,1201,32,16,Stop,Right,133,NoResponse,0,Low
jou-cmand1DR-20201116,jo,5,1202,32,17,Go,Left,0,Left,249,High
jou-cmand1DR-20201116,jo,5,1203,33,1,Go,Left,0,Left,241,Low
jou-cmand1DR-20201116,jo,5,1204,33,2,Go,Right,0,Right,298,High
jou-cmand1DR-20201116,jo,5,1205,33,3,Go,Right,0,Right,296,High
jou-cmand1DR-20201116,jo,5,1206,33,4,Go,Left,0,Left,297,Low
jou-cmand1DR-20201116,jo,5,1207,33,5,Stop,Right,200,Right,278,High
jou-cmand1DR-20201116,jo,5,1208,33,6,Go,Right,0,Right,292,High
jou-cmand1DR-20201116,jo,5,1209,33,7,Go,Right,0,Right,303,High
jou-cmand1DR-20201116,jo,5,1210,33,8,Go,Left,0,Left,367,Low
jou-cmand1DR-20201116,jo,5,1211,33,9,Go,Right,0,Right,270,High
jou-cmand1DR-20201116,jo,5,1212,33,10,Go,Right,0,Right,319,High
jou-cmand1DR-20201116,jo,5,1213,33,11,Go,Right,0,Right,316,High
jou-cmand1DR-20201116,jo,5,1214,33,12,Stop,Left,50,NoResponse,0,Low
jou-cmand1DR-20201116,jo,5,1215,33,13,Go,Left,0,Left,288,Low
jou-cmand1DR-20201116,jo,5,1216,34,1,Go,Left,0,Left,321,High
jou-cmand1DR-20201116,jo,5,1217,34,2,Stop,Left,133,NoStart,0,High
jou-cmand1DR-20201116,jo,5,1218,34,3,Go,Right,0,Right,315,Low
jou-cmand1DR-20201116,jo,5,1219,34,4,Go,Left,0,Left,327,High
jou-cmand1DR-20201116,jo,5,1220,34,5,Stop,Right,133,NoResponse,0,Low
jou-cmand1DR-20201116,jo,5,1221,34,6,Go,Right,0,Right,316,Low
jou-cmand1DR-20201116,jo,5,1222,34,7,Go,Left,0,Left,234,High
jou-cmand1DR-20201116,jo,5,1223,34,8,Go,Right,0,NoStart,0,Low
jou-cmand1DR-20201116,jo,5,1224,34,9,Go,Right,0,Right,297,Low
jou-cmand1DR-20201116,jo,5,1225,34,10,Go,Right,0,Right,351,Low
jou-cmand1DR-20201116,jo,5,1226,34,11,Go,Left,0,Left,249,High
jou-cmand1DR-20201116,jo,5,1227,34,12,Go,Right,0,Right,317,Low
jou-cmand1DR-20201116,jo,5,1228,34,13,Stop,Left,333,Left,222,High
jou-cmand1DR-20201116,jo,5,1229,34,14,Go,Right,0,Right,246,Low
jou-cmand1DR-20201116,jo,5,1230,34,15,Stop,Right,200,NoStart,0,Low
jou-cmand1DR-20201116,jo,5,1231,34,16,Stop,Right,50,NoResponse,0,Low
jou-cmand1DR-20201116,jo,5,1232,34,17,Go,Right,0,NoStart,0,Low
jou-cmand1DR-20201116,jo,5,1233,34,18,Go,Right,0,Right,593,Low
jou-cmand1DR-20201116,jo,5,1234,34,19,Go,Right,0,NoStart,0,Low
jou-cmand1DR-20201116,jo,5,1235,34,20,Stop,Right,133,NoResponse,0,Low
jou-cmand1DR-20201116,jo,5,1236,34,21,Go,Left,0,Left,252,High
jou-cmand1DR-20201116,jo,5,1237,34,22,Go,Left,0,Left,235,High
jou-cmand1DR-20201116,jo,5,1238,34,23,Go,Right,0,Right,278,Low
jou-cmand1DR-20201116,jo,5,1239,35,1,Go,Left,0,Left,233,Low
jou-cmand1DR-20201116,jo,5,1240,35,2,Go,Left,0,Left,260,Low
jou-cmand1DR-20201116,jo,5,1241,35,3,Go,Left,0,NoStart,0,Low
jou-cmand1DR-20201116,jo,5,1242,35,4,Stop,Right,267,Right,324,High
jou-cmand1DR-20201116,jo,5,1243,35,5,Go,Right,0,Right,310,High
jou-cmand1DR-20201116,jo,5,1244,35,6,Stop,Right,200,NoResponse,0,High
jou-cmand1DR-20201116,jo,5,1245,35,7,Go,Left,0,Left,339,Low
jou-cmand1DR-20201116,jo,5,1246,35,8,Go,Left,0,Left,401,Low
jou-cmand1DR-20201116,jo,5,1247,35,9,Stop,Left,267,NoResponse,0,Low
jou-cmand1DR-20201116,jo,5,1248,35,10,Go,Right,0,Right,225,High
jou-cmand1DR-20201116,jo,5,1249,35,11,Stop,Left,400,Left,253,Low
jou-cmand1DR-20201116,jo,5,1250,35,12,Go,Left,0,Left,395,Low
jou-cmand1DR-20201116,jo,5,1251,35,13,Go,Right,0,Right,217,High
jou-cmand1DR-20201116,jo,5,1252,35,14,Go,Left,0,Left,321,Low
jou-cmand1DR-20201116,jo,5,1253,35,15,Go,Left,0,Left,276,Low
jou-cmand1DR-20201116,jo,5,1254,35,16,Stop,Right,333,Right,214,High
jou-cmand1DR-20201116,jo,5,1255,35,17,Stop,Left,200,NoStart,0,Low
jou-cmand1DR-20201116,jo,5,1256,35,18,Stop,Right,133,NoResponse,0,High
jou-cmand1DR-20201116,jo,5,1257,35,19,Go,Left,0,Left,369,Low
jou-cmand1DR-20201116,jo,5,1258,36,1,Go,Left,0,Left,262,High
jou-cmand1DR-20201116,jo,5,1259,36,2,Go,Left,0,Left,202,High
jou-cmand1DR-20201116,jo,5,1260,36,3,Go,Left,0,Left,222,High
jou-cmand1DR-20201116,jo,5,1261,36,4,Go,Left,0,Left,248,High
jou-cmand1DR-20201116,jo,5,1262,36,5,Go,Right,0,NoStart,0,Low
jou-cmand1DR-20201116,jo,5,1263,36,6,Go,Right,0,Right,192,Low
jou-cmand1DR-20201116,jo,5,1264,36,7,Go,Left,0,NoStart,0,High
jou-cmand1DR-20201116,jo,5,1265,36,8,Stop,Left,333,NoStart,0,High
jou-cmand1DR-20201116,jo,5,1266,36,9,Stop,Left,483,Left,172,High
jou-cmand1DR-20201116,jo,5,1267,36,10,Stop,Right,400,Right,243,Low
jou-cmand1DR-20201116,jo,5,1268,36,11,Go,Left,0,Left,274,High
jou-cmand1DR-20201116,jo,5,1269,36,12,Stop,Left,200,Left,244,High
jou-cmand1DR-20201116,jo,5,1270,36,13,Go,Left,0,Left,219,High
jou-cmand1DR-20201116,jo,5,1271,36,14,Stop,Right,50,NoStart,0,Low
jou-cmand1DR-20201116,jo,5,1272,36,15,Stop,Right,50,NoStart,0,Low
jou-cmand1DR-20201116,jo,5,1273,36,16,Go,Right,0,NoStart,0,Low
jou-cmand1DR-20201116,jo,5,1274,36,17,Go,Right,0,NoStart,0,Low
jou-cmand1DR-20201116,jo,5,1275,36,18,Go,Left,0,NoStart,0,High
jou-cmand1DR-20201116,jo,5,1276,36,19,Stop,Left,50,Left,229,High
jou-cmand1DR-20201116,jo,5,1277,36,20,Go,Left,0,NoStart,0,High
jou-cmand1DR-20201116,jo,5,1278,36,21,Go,Right,0,NoStart,0,Low
jou-cmand1DR-20201116,jo,5,1279,36,22,Go,Left,0,NoStart,0,High
jou-cmand1DR-20201116,jo,5,1280,36,23,Go,Right,0,NoStart,0,Low
jou-cmand1DR-20201116,jo,5,1281,36,24,Go,Left,0,NoStart,0,High
jou-cmand1DR-20201116,jo,5,1282,36,25,Go,Right,0,NoStart,0,Low
jou-cmand1DR-20201116,jo,5,1283,36,26,Go,Right,0,NoStart,0,Low
jou-cmand1DR-20201116,jo,5,1284,36,27,Stop,Left,50,NoStart,0,High
jou-cmand1DR-20201116,jo,5,1285,36,28,Go,Right,0,NoStart,0,Low
jou-cmand1DR-20201116,jo,5,1286,36,29,Go,Right,0,Right,248,Low
jou-cmand1DR-20201116,jo,5,1287,36,30,Stop,Left,50,NoStart,0,High
jou-cmand1DR-20201116,jo,5,1288,36,31,Stop,Left,50,NoStart,0,High
jou-cmand1DR-20201116,jo,5,1289,36,32,Stop,Left,50,NoResponse,0,High
jou-cmand1DR-20201116,jo,5,1290,36,33,Go,Right,0,Right,293,Low
jou-cmand1DR-20201116,jo,5,1291,36,34,Go,Left,0,Left,234,High
jou-cmand1DR-20201116,jo,5,1292,36,35,Go,Right,0,NoStart,0,Low
jou-cmand1DR-20201116,jo,5,1293,36,36,Stop,Left,267,NoStart,0,High
jou-cmand1DR-20201116,jo,5,1294,36,37,Stop,Left,400,NoStart,0,High
jou-cmand1DR-20201116,jo,5,1295,36,38,Go,Right,0,Right,168,Low
jou-cmand1DR-20201116,jo,5,1296,36,39,Go,Right,0,Right,243,Low
jou-cmand1DR-20201116,jo,5,1297,36,40,Go,Right,0,NoStart,0,Low
jou-cmand1DR-20201116,jo,5,1298,36,41,Go,Right,0,Right,178,Low
jou-cmand1DR-20201116,jo,5,1299,36,42,Stop,Right,483,Right,284,Low
jou-cmand1DR-20201116,jo,5,1300,36,43,Go,Left,0,Left,219,High
jou-cmand1DR-20201116,jo,5,1301,36,44,Stop,Right,267,Right,226,Low
jou-cmand1DR-20201116,jo,5,1302,36,45,Stop,Right,200,Right,273,Low
jou-cmand1DR-20201116,jo,5,1303,36,46,Stop,Left,50,NoStart,0,High
jou-cmand1DR-20201116,jo,5,1304,36,47,Go,Left,0,NoStart,0,High
jou-cmand1DR-20201116,jo,5,1305,36,48,Go,Left,0,NoStart,0,High
jou-cmand1DR-20201116,jo,5,1306,36,49,Stop,Left,50,NoStart,0,High
jou-cmand1DR-20201116,jo,5,1307,36,50,Stop,Right,50,NoResponse,0,Low
jou-cmand1DR-20201116,jo,5,1308,36,51,Stop,Left,133,Left,202,High
jou-cmand1DR-20201116,jo,5,1309,36,52,Stop,Left,50,Left,199,High
jou-cmand1DR-20201116,jo,5,1310,36,53,Go,Left,0,Left,656,High
jou-cmand1DR-20201116,jo,5,1311,36,54,Go,Right,0,Right,303,Low
jou-cmand1DR-20201116,jo,5,1312,36,55,Stop,Left,50,NoResponse,0,High
jou-cmand1DR-20201116,jo,5,1313,36,56,Stop,Left,133,Left,191,High
jou-cmand1DR-20201116,jo,5,1314,36,57,Stop,Left,50,NoStart,0,High
jou-cmand1DR-20201116,jo,5,1315,36,58,Go,Left,0,NoStart,0,High
jou-cmand1DR-20201116,jo,5,1316,36,59,Go,Left,0,NoStart,0,High
jou-cmand1DR-20201116,jo,5,1317,36,60,Stop,Left,50,NoStart,0,High
jou-cmand1DR-20201116,jo,5,1318,36,61,Stop,Right,50,NoStart,0,Low
jou-cmand1DR-20201116,jo,5,1319,36,62,Go,Left,0,NoStart,0,High
jou-cmand1DR-20201116,jo,5,1320,36,63,Go,Right,0,NoStart,0,Low
jou-cmand1DR-20201116,jo,5,1321,36,64,Go,Right,0,NoStart,0,Low
jou-cmand1DR-20201116,jo,5,1322,36,65,Go,Left,0,NoStart,0,High
jou-cmand1DR-20201116,jo,5,1323,36,66,Go,Left,0,Left,225,High
jou-cmand1DR-20201116,jo,5,1324,36,67,Stop,Left,50,NoStart,0,High
jou-cmand1DR-20201116,jo,5,1325,36,68,Go,Right,0,NoStart,0,Low
jou-cmand1DR-20201116,jo,5,1326,36,69,Go,Right,0,NoStart,0,Low
jou-cmand1DR-20201116,jo,5,1327,36,70,Go,Right,0,NoStart,0,Low
jou-cmand1DR-20201116,jo,5,1328,36,71,Go,Right,0,Right,243,Low
jou-cmand1DR-20201116,jo,5,1329,36,72,Stop,Right,50,NoStart,0,Low
jou-cmand1DR-20201116,jo,5,1330,36,73,Stop,Right,50,NoStart,0,Low
jou-cmand1DR-20201116,jo,5,1331,36,74,Stop,Right,50,NoStart,0,Low
jou-cmand1DR-20201116,jo,5,1332,36,75,Go,Left,0,NoStart,0,High
jou-cmand1DR-20201116,jo,5,1333,36,76,Stop,Left,50,NoStart,0,High
jou-cmand1DR-20201116,jo,5,1334,36,77,Stop,Left,50,NoStart,0,High
jou-cmand1DR-20201116,jo,5,1335,36,78,Go,Right,0,NoStart,0,Low
jou-cmand1DR-20201116,jo,5,1336,36,79,Go,Right,0,NoStart,0,Low
jou-cmand1DR-20201116,jo,5,1337,36,80,Stop,Left,50,Left,223,High
jou-cmand1DR-20201116,jo,5,1338,36,81,Go,Left,0,Left,270,High
jou-cmand1DR-20201116,jo,5,1339,36,82,Go,Right,0,Right,342,Low
jou-cmand1DR-20201116,jo,5,1340,36,83,Stop,Left,50,Left,209,High
jou-cmand1DR-20201116,jo,5,1341,36,84,Stop,Right,50,Right,197,Low
jou-cmand1DR-20201116,jo,5,1342,36,85,Go,Right,0,Right,252,Low
jou-cmand1DR-20201116,jo,5,1343,36,86,Stop,Right,50,NoStart,0,Low
jou-cmand1DR-20201116,jo,5,1344,36,87,Stop,Right,400,NoStart,0,Low
jou-cmand1DR-20201116,jo,5,1345,36,88,Go,Right,0,NoStart,0,Low
jou-cmand1DR-20201116,jo,5,1346,36,89,Stop,Left,50,NoStart,0,High
jou-cmand1DR-20201116,jo,5,1347,36,90,Go,Left,0,NoStart,0,High
jou-cmand1DR-20201116,jo,5,1348,36,91,Go,Right,0,NoStart,0,Low
jou-cmand1DR-20201116,jo,5,1349,36,92,Go,Right,0,NoStart,0,Low
jou-cmand1DR-20201116,jo,5,1350,36,93,Go,Right,0,NoStart,0,Low
jou-cmand1DR-20201116,jo,5,1351,36,94,Go,Left,0,Left,184,High
jou-cmand1DR-20201116,jo,5,1352,36,95,Go,Left,0,Left,234,High
jou-cmand1DR-20201116,jo,5,1353,36,96,Go,Left,0,NoStart,0,High
jou-cmand1DR-20201116,jo,5,1354,36,97,Stop,Left,400,Left,243,High
jou-cmand1DR-20201116,jo,5,1355,36,98,Go,Right,0,NoStart,0,Low
jou-cmand1DR-20201116,jo,5,1356,36,99,Go,Right,0,Right,222,Low
jou-cmand1DR-20201116,jo,5,1357,36,100,Stop,Right,333,Right,165,Low
jou-cmand1DR-20201116,jo,5,1358,36,101,Go,Left,0,NoStart,0,High
jou-cmand1DR-20201116,jo,5,1359,36,102,Go,Left,0,NoStart,0,High
jou-cmand1DR-20201116,jo,5,1360,36,103,Stop,Right,133,NoStart,0,Low
jou-cmand1DR-20201116,jo,5,1361,36,104,Go,Left,0,NoStart,0,High
jou-cmand1DR-20201116,jo,5,1362,36,105,Go,Left,0,NoStart,0,High
jou-cmand1DR-20201116,jo,5,1363,36,106,Stop,Right,50,NoStart,0,Low
jou-cmand1DR-20201116,jo,5,1364,36,107,Go,Right,0,NoStart,0,Low
jou-cmand1DR-20201116,jo,5,1365,36,108,Go,Right,0,NoStart,0,Low
jou-cmand1DR-20201116,jo,5,1366,36,109,Go,Right,0,NoStart,0,Low
jou-cmand1DR-20201116,jo,5,1367,36,110,Go,Right,0,NoStart,0,Low
jou-cmand1DR-20201116,jo,5,1368,36,111,Go,Right,0,NoStart,0,Low
jou-cmand1DR-20201116,jo,5,1369,36,112,Go,Left,0,NoStart,0,High
jou-cmand1DR-20201116,jo,5,1370,36,113,Go,Left,0,NoStart,0,High
jou-cmand1DR-20201116,jo,5,1371,36,114,Stop,Right,50,NoStart,0,Low
jou-cmand1DR-20201116,jo,5,1372,36,115,Go,Right,0,NoStart,0,Low
jou-cmand1DR-20201116,jo,5,1373,36,116,Go,Right,0,NoStart,0,Low
jou-cmand1DR-20201116,jo,5,1374,36,117,Go,Right,0,NoStart,0,Low
jou-cmand1DR-20201116,jo,5,1375,36,118,Go,Left,0,NoStart,0,High
jou-cmand1DR-20201116,jo,5,1376,36,119,Stop,Left,50,NoStart,0,High
jou-cmand1DR-20201116,jo,5,1377,36,120,Go,Right,0,NoStart,0,Low
jou-cmand1DR-20201116,jo,5,1378,36,121,Stop,Right,50,NoStart,0,Low
jou-cmand1DR-20201116,jo,5,1379,36,122,Go,Right,0,NoStart,0,Low
jou-cmand1DR-20201116,jo,5,1380,36,123,Go,Left,0,NoStart,0,High
jou-cmand1DR-20201116,jo,5,1381,36,124,Stop,Left,50,NoStart,0,High
jou-cmand1DR-20201116,jo,5,1382,36,125,Go,Left,0,NoStart,0,High
jou-cmand1DR-20201116,jo,5,1383,36,126,Stop,Left,50,NoStart,0,High
jou-cmand1DR-20201116,jo,5,1384,36,127,Stop,Right,50,NoStart,0,Low
jou-cmand1DR-20201116,jo,5,1385,36,128,Go,Left,0,NoStart,0,High
jou-cmand1DR-20201116,jo,5,1386,36,129,Go,Left,0,NoStart,0,High
jou-cmand1DR-20201116,jo,5,1387,36,130,Go,Left,0,NoStart,0,High
jou-cmand1DR-20201116,jo,5,1388,36,131,Go,Left,0,NoStart,0,High
jou-cmand1DR-20201116,jo,5,1389,36,132,Go,Right,0,NoStart,0,Low
jou-cmand1DR-20201116,jo,5,1390,36,133,Go,Left,0,NoStart,0,High
jou-cmand1DR-20201116,jo,5,1391,36,134,Go,Left,0,NoStart,0,High
jou-cmand1DR-20201116,jo,5,1392,36,135,Go,Left,0,Left,166,High
jou-cmand1DR-20201116,jo,5,1393,36,136,Stop,Left,50,NoStart,0,High
jou-cmand1DR-20201116,jo,5,1394,36,137,Stop,Right,50,Right,213,Low
jou-cmand1DR-20201116,jo,5,1395,36,138,Stop,Left,50,NoStart,0,High
jou-cmand1DR-20201116,jo,5,1396,36,139,Stop,Left,50,NoStart,0,High
jou-cmand1DR-20201116,jo,5,1397,36,140,Stop,Left,50,NoStart,0,High
jou-cmand1DR-20201116,jo,5,1398,36,141,Go,Right,0,NoStart,0,Low
jou-cmand1DR-20201116,jo,5,1399,36,142,Go,Left,0,NoStart,0,High
jou-cmand1DR-20201116,jo,5,1400,36,143,Stop,Right,50,NoStart,0,Low
jou-cmand1DR-20201116,jo,5,1401,36,144,Stop,Right,50,NoStart,0,Low
jou-cmand1DR-20201116,jo,5,1402,36,145,Stop,Left,50,NoStart,0,High
jou-cmand1DR-20201116,jo,5,1403,36,146,Go,Right,0,NoStart,0,Low
jou-cmand1DR-20201116,jo,5,1404,36,147,Go,Left,0,NoStart,0,High
jou-cmand1DR-20201116,jo,5,1405,36,148,Go,Left,0,NoStart,0,High
jou-cmand1DR-20201116,jo,5,1406,36,149,Stop,Left,50,NoStart,0,High
jou-cmand1DR-20201116,jo,5,1407,36,150,Stop,Left,50,NoStart,0,High
jou-cmand1DR-20201116,jo,5,1408,36,151,Stop,Left,50,NoStart,0,High
jou-cmand1DR-20201116,jo,5,1409,36,152,Go,Left,0,NoStart,0,High
jou-cmand1DR-20201116,jo,5,1410,36,153,Stop,Left,50,NoStart,0,High
jou-cmand1DR-20201116,jo,5,1411,36,154,Go,Right,0,NoStart,0,Low
jou-cmand1DR-20201116,jo,5,1412,36,155,Go,Right,0,NoStart,0,Low
jou-cmand1DR-20201116,jo,5,1413,36,156,Stop,Right,50,NoStart,0,Low
jou-cmand1DR-20201116,jo,5,1414,36,157,Go,Left,0,NoStart,0,High
jou-cmand1DR-20201116,jo,5,1415,36,158,Go,Left,0,NoStart,0,High
jou-cmand1DR-20201116,jo,5,1416,36,159,Go,Right,0,NoStart,0,Low
jou-cmand1DR-20201116,jo,5,1417,36,160,Stop,Left,50,NoStart,0,High
jou-cmand1DR-20201116,jo,5,1418,36,161,Go,Right,0,NoStart,0,Low
jou-cmand1DR-20201116,jo,5,1419,36,162,Go,Right,0,NoStart,0,Low
jou-cmand1DR-20201116,jo,5,1420,36,163,Stop,Left,50,NoStart,0,High
jou-cmand1DR-20201116,jo,5,1421,36,164,Go,Left,0,NoStart,0,High
jou-cmand1DR-20201116,jo,5,1422,36,165,Go,Right,0,NoStart,0,Low
jou-cmand1DR-20201116,jo,5,1423,36,166,Stop,Left,50,NoStart,0,High
jou-cmand1DR-20201116,jo,5,1424,36,167,Go,Left,0,NoStart,0,High
jou-cmand1DR-20201116,jo,5,1425,36,168,Stop,Right,50,NoStart,0,Low
jou-cmand1DR-20201116,jo,5,1426,36,169,Stop,Right,50,NoStart,0,Low
jou-cmand1DR-20201116,jo,5,1427,36,170,Go,Right,0,NoStart,0,Low
jou-cmand1DR-20201116,jo,5,1428,36,171,Go,Right,0,NoStart,0,Low
jou-cmand1DR-20201116,jo,5,1429,36,172,Stop,Left,50,NoStart,0,High
jou-cmand1DR-20201116,jo,5,1430,36,173,Stop,Left,50,NoStart,0,High
jou-cmand1DR-20201116,jo,5,1431,36,174,Go,Right,0,NoStart,0,Low
jou-cmand1DR-20201116,jo,5,1432,36,175,Stop,Left,50,NoStart,0,High
jou-cmand1DR-20201116,jo,5,1433,36,176,Go,Left,0,NoStart,0,High
jou-cmand1DR-20201116,jo,5,1434,36,177,Stop,Right,50,NoStart,0,Low
jou-cmand1DR-20201116,jo,5,1435,36,178,Go,Left,0,NoStart,0,High
jou-cmand1DR-20201116,jo,5,1436,36,179,Go,Left,0,NoStart,0,High
jou-cmand1DR-20201116,jo,5,1437,36,180,Stop,Left,50,NoStart,0,High
jou-cmand1DR-20201116,jo,5,1438,36,181,Stop,Right,50,NoStart,0,Low
jou-cmand1DR-20201116,jo,5,1439,36,182,Stop,Left,50,NoStart,0,High
jou-cmand1DR-20201116,jo,5,1440,36,183,Go,Right,0,NoStart,0,Low
jou-cmand1DR-20201116,jo,5,1441,36,184,Go,Left,0,NoStart,0,High
jou-cmand1DR-20201116,jo,5,1442,36,185,Stop,Left,50,NoStart,0,High
jou-cmand1DR-20201116,jo,5,1443,36,186,Go,Right,0,NoStart,0,Low
jou-cmand1DR-20201116,jo,5,1444,36,187,Go,Left,0,NoStart,0,High
jou-cmand1DR-20201116,jo,5,1445,36,188,Go,Left,0,NoStart,0,High
jou-cmand1DR-20201116,jo,5,1446,36,189,Go,Left,0,NoStart,0,High
jou-cmand1DR-20201116,jo,5,1447,36,190,Go,Right,0,NoStart,0,Low
jou-cmand1DR-20201116,jo,5,1448,36,191,Go,Right,0,NoStart,0,Low
jou-cmand1DR-20201116,jo,5,1449,36,192,Stop,Right,50,NoStart,0,Low
jou-cmand1DR-20201116,jo,5,1450,36,193,Go,Left,0,NoStart,0,High
jou-cmand1DR-20201116,jo,5,1451,36,194,Stop,Left,50,NoStart,0,High
jou-cmand1DR-20201116,jo,5,1452,36,195,Go,Right,0,NoStart,0,Low
jou-cmand1DR-20201116,jo,5,1453,36,196,Go,Right,0,NoStart,0,Low
jou-cmand1DR-20201116,jo,5,1454,36,197,Go,Right,0,NoStart,0,Low
jou-cmand1DR-20201116,jo,5,1455,36,198,Go,Left,0,NoStart,0,High
jou-cmand1DR-20201116,jo,5,1456,36,199,Stop,Right,50,NoStart,0,Low
jou-cmand1DR-20201116,jo,5,1457,36,200,Stop,Left,50,NoStart,0,High
jou-cmand1DR-20201116,jo,5,1458,36,201,Stop,Left,50,NoStart,0,High
jou-cmand1DR-20201116,jo,5,1459,36,202,Go,Right,0,NoStart,0,Low
jou-cmand1DR-20201116,jo,5,1460,36,203,Go,Right,0,NoStart,0,Low
jou-cmand1DR-20201116,jo,5,1461,36,204,Go,Right,0,NoStart,0,Low
jou-cmand1DR-20201116,jo,5,1462,36,205,Go,Left,0,NoStart,0,High
jou-cmand1DR-20201116,jo,5,1463,36,206,Go,Right,0,NoStart,0,Low
jou-cmand1DR-20201116,jo,5,1464,36,207,Stop,Right,50,NoStart,0,Low
jou-cmand1DR-20201116,jo,5,1465,36,208,Stop,Left,50,NoStart,0,High
jou-cmand1DR-20201116,jo,5,1466,36,209,Go,Left,0,NoStart,0,High
jou-cmand1DR-20201116,jo,5,1467,36,210,Go,Right,0,NoStart,0,Low
jou-cmand1DR-20201116,jo,5,1468,36,211,Stop,Left,50,NoStart,0,High
jou-cmand1DR-20201116,jo,5,1469,36,212,Stop,Left,50,NoStart,0,High
jou-cmand1DR-20201116,jo,5,1470,36,213,Stop,Right,50,NoStart,0,Low
jou-cmand1DR-20201116,jo,5,1471,36,214,Go,Left,0,NoStart,0,High
jou-cmand1DR-20201116,jo,5,1472,36,215,Go,Right,0,NoStart,0,Low
jou-cmand1DR-20201116,jo,5,1473,36,216,Go,Left,0,NoStart,0,High
jou-cmand1DR-20201116,jo,5,1474,36,217,Go,Right,0,NoStart,0,Low
jou-cmand1DR-20201116,jo,5,1475,36,218,Go,Left,0,NoStart,0,High
jou-cmand1DR-20201116,jo,5,1476,36,219,Stop,Right,50,NoStart,0,Low
jou-cmand1DR-20201116,jo,5,1477,36,220,Go,Right,0,NoStart,0,Low
jou-cmand1DR-20201116,jo,5,1478,36,221,Stop,Left,50,NoStart,0,High
jou-cmand1DR-20201116,jo,5,1479,36,222,Go,Right,0,NoStart,0,Low
jou-cmand1DR-20201116,jo,5,1480,36,223,Go,Right,0,NoStart,0,Low
jou-cmand1DR-20201116,jo,5,1481,36,224,Stop,Right,50,NoStart,0,Low
jou-cmand1DR-20201116,jo,5,1482,36,225,Stop,Left,50,NoStart,0,High
jou-cmand1DR-20201116,jo,5,1483,36,226,Stop,Left,50,NoStart,0,High
jou-cmand1DR-20201116,jo,5,1484,36,227,Stop,Right,50,NoResponse,0,Low
jou-cmand1DR-20201116,jo,5,1485,36,228,Stop,Right,133,NoResponse,0,Low
jou-cmand1DR-20201116,jo,5,1486,36,229,Go,Left,0,NoStart,0,High
jou-cmand1DR-20201116,jo,5,1487,36,230,Stop,Right,333,NoStart,0,Low
jou-cmand1DR-20201116,jo,5,1488,36,231,Go,Left,0,Left,156,High
jou-cmand1DR-20201116,jo,5,1489,37,1,Go,Right,0,Right,208,High
jou-cmand1DR-20201116,jo,5,1490,37,2,Go,Right,0,Right,295,High
jou-cmand1DR-20201116,jo,5,1491,37,3,Go,Left,0,Left,193,Low
jou-cmand1DR-20201116,jo,5,1492,37,4,Go,Right,0,NoStart,0,High
jou-cmand1DR-20201116,jo,5,1493,37,5,Go,Right,0,NoStart,0,High
jou-cmand1DR-20201116,jo,5,1494,37,6,Stop,Right,483,NoStart,0,High
jou-cmand1DR-20201116,jo,5,1495,37,7,Stop,Left,333,Left,200,Low
jou-cmand1DR-20201116,jo,5,1496,37,8,Go,Right,0,NoStart,0,High
jou-cmand1DR-20201116,jo,5,1497,37,9,Go,Left,0,NoStart,0,Low
jou-cmand1DR-20201116,jo,5,1498,37,10,Go,Left,0,NoStart,0,Low
jou-cmand1DR-20201116,jo,5,1499,37,11,Go,Right,0,NoStart,0,High
jou-cmand1DR-20201116,jo,5,1500,37,12,Stop,Left,200,NoStart,0,Low
jou-cmand1DR-20201116,jo,5,1501,37,13,Go,Left,0,NoStart,0,Low
jou-cmand1DR-20201116,jo,5,1502,37,14,Stop,Right,133,NoStart,0,High
jou-cmand1DR-20201116,jo,5,1503,37,15,Go,Right,0,NoStart,0,High
jou-cmand1DR-20201116,jo,5,1504,37,16,Stop,Right,50,NoStart,0,High
jou-cmand1DR-20201116,jo,5,1505,37,17,Go,Left,0,NoStart,0,Low
jou-cmand1DR-20201116,jo,5,1506,37,18,Go,Right,0,NoStart,0,High
jou-cmand1DR-20201116,jo,5,1507,37,19,Go,Left,0,NoStart,0,Low
jou-cmand1DR-20201116,jo,5,1508,37,20,Go,Left,0,NoStart,0,Low
jou-cmand1DR-20201116,jo,5,1509,37,21,Stop,Left,50,NoStart,0,Low
jou-cmand1DR-20201116,jo,5,1510,37,22,Stop,Right,50,NoStart,0,High
jou-cmand1DR-20201116,jo,5,1511,37,23,Stop,Right,50,NoStart,0,High
jou-cmand1DR-20201116,jo,5,1512,37,24,Go,Right,0,NoStart,0,High
jou-cmand1DR-20201116,jo,5,1513,37,25,Stop,Left,50,NoStart,0,Low
jou-cmand1DR-20201116,jo,5,1514,37,26,Go,Right,0,NoStart,0,High
jou-cmand1DR-20201116,jo,5,1515,37,27,Go,Left,0,NoStart,0,Low
jou-cmand1DR-20201116,jo,5,1516,37,28,Go,Right,0,NoStart,0,High
jou-cmand1DR-20201116,jo,5,1517,37,29,Stop,Left,50,NoStart,0,Low
jou-cmand1DR-20201116,jo,5,1518,37,30,Stop,Right,50,NoResponse,0,High
jou-cmand1DR-20201116,jo,5,1519,37,31,Go,Right,0,Right,326,High
jou-cmand1DR-20201116,jo,5,1520,37,32,Go,Right,0,Right,264,High
jou-cmand1DR-20201116,jo,5,1521,37,33,Go,Right,0,Right,255,High
jou-cmand1DR-20201116,jo,5,1522,37,34,Go,Right,0,Right,275,High
jou-cmand1DR-20201116,jo,5,1523,37,35,Stop,Right,200,Right,245,High
jou-cmand1DR-20201116,jo,5,1524,37,36,Stop,Right,50,NoResponse,0,High
jou-cmand1DR-20201116,jo,5,1525,37,37,Go,Right,0,NoStart,0,High
jou-cmand1DR-20201116,jo,5,1526,37,38,Stop,Right,133,NoResponse,0,High
jou-cmand1DR-20201116,jo,5,1527,37,39,Stop,Left,267,Left,178,Low
jou-cmand1DR-20201116,jo,5,1528,37,40,Stop,Right,133,NoStart,0,High
jou-cmand1DR-20201116,jo,5,1529,37,41,Go,Right,0,NoStart,0,High
jou-cmand1DR-20201116,jo,5,1530,37,42,Stop,Left,50,Left,229,Low
jou-cmand1DR-20201116,jo,5,1531,37,43,Stop,Right,50,NoResponse,0,High
jou-cmand1DR-20201116,jo,5,1532,37,44,Stop,Right,200,Right,284,High
jou-cmand1DR-20201116,jo,5,1533,37,45,Go,Right,0,Right,193,High
jou-cmand1DR-20201116,jo,5,1534,37,46,Go,Left,0,Left,202,Low
jou-cmand1DR-20201116,jo,5,1535,37,47,Go,Right,0,Right,230,High
jou-cmand1DR-20201116,jo,5,1536,37,48,Go,Left,0,Left,181,Low
jou-cmand1DR-20201116,jo,5,1537,37,49,Go,Left,0,NoStart,0,Low
jou-cmand1DR-20201116,jo,5,1538,37,50,Go,Right,0,Right,186,High
jou-cmand1DR-20201116,jo,5,1539,37,51,Go,Left,0,Left,201,Low
jou-cmand1DR-20201116,jo,5,1540,37,52,Go,Right,0,Right,209,High
jou-cmand1DR-20201116,jo,5,1541,37,53,Go,Left,0,NoStart,0,Low
jou-cmand1DR-20201116,jo,5,1542,37,54,Go,Left,0,NoStart,0,Low
jou-cmand1DR-20201116,jo,5,1543,37,55,Go,Left,0,NoStart,0,Low
jou-cmand1DR-20201116,jo,5,1544,37,56,Stop,Right,50,NoResponse,0,High
jou-cmand1DR-20201116,jo,5,1545,37,57,Go,Right,0,NoStart,0,High
jou-cmand1DR-20201116,jo,5,1546,37,58,Go,Left,0,Left,173,Low
jou-cmand1DR-20201116,jo,5,1547,37,59,Go,Left,0,Left,217,Low
jou-cmand1DR-20201116,jo,5,1548,37,60,Go,Left,0,Left,216,Low
jou-cmand1DR-20201116,jo,5,1549,37,61,Stop,Left,200,NoResponse,0,Low
jou-cmand1DR-20201116,jo,5,1550,37,62,Stop,Left,267,NoStart,0,Low
jou-cmand1DR-20201116,jo,5,1551,37,63,Go,Left,0,NoStart,0,Low
jou-cmand1DR-20201116,jo,5,1552,37,64,Stop,Left,483,NoStart,0,Low
