sessionName,monkeyName,sessionN,trial,block,blocktrial,trialType,targetLoc,ssd,response,rt,value
jou-cmand1DR-20201113,jo,3,1,1,1,Stop,Left,400,Left,318,Low
jou-cmand1DR-20201113,jo,3,2,1,2,Stop,Left,200,NoResponse,0,Low
jou-cmand1DR-20201113,jo,3,3,1,3,Go,Right,0,Right,249,High
jou-cmand1DR-20201113,jo,3,4,1,4,Go,Right,0,Right,302,High
jou-cmand1DR-20201113,jo,3,5,1,5,Go,Right,0,Right,294,High
jou-cmand1DR-20201113,jo,3,6,1,6,Go,Left,0,Left,383,Low
jou-cmand1DR-20201113,jo,3,7,1,7,Go,Right,0,Right,284,High
jou-cmand1DR-20201113,jo,3,8,1,8,Go,Right,0,Right,248,High
jou-cmand1DR-20201113,jo,3,9,1,9,Go,Left,0,Left,373,Low
jou-cmand1DR-20201113,jo,3,10,2,1,Go,Left,0,Left,423,High
jou-cmand1DR-20201113,jo,3,11,2,2,Go,Right,0,Right,358,Low
jou-cmand1DR-20201113,jo,3,12,2,3,Stop,Left,333,NoStart,0,High
jou-cmand1DR-20201113,jo,3,13,2,4,Go,Right,0,Right,402,Low
jou-cmand1DR-20201113,jo,3,14,2,5,Stop,Left,483,Left,216,High
jou-cmand1DR-20201113,jo,3,15,2,6,Stop,Right,333,NoResponse,0,Low
jou-cmand1DR-20201113,jo,3,16,2,7,Go,Left,0,Left,237,High
jou-cmand1DR-20201113,jo,3,17,2,8,Stop,Right,400,NoResponse,0,Low
jou-cmand1DR-20201113,jo,3,18,2,9,Go,Right,0,Right,275,Low
jou-cmand1DR-20201113,jo,3,19,2,10,Stop,Right,483,Right,281,Low
jou-cmand1DR-20201113,jo,3,20,2,11,Go,Right,0,Right,442,Low
jou-cmand1DR-20201113,jo,3,21,2,12,Stop,Left,267,Left,235,High
jou-cmand1DR-20201113,jo,3,22,2,13,Go,Right,0,NoStart,0,Low
jou-cmand1DR-20201113,jo,3,23,2,14,Stop,Right,133,NoResponse,0,Low
jou-cmand1DR-20201113,jo,3,24,2,15,Go,Left,0,Left,248,High
jou-cmand1DR-20201113,jo,3,25,2,16,Stop,Left,267,Left,273,High
jou-cmand1DR-20201113,jo,3,26,2,17,Go,Left,0,Left,307,High
jou-cmand1DR-20201113,jo,3,27,2,18,Go,Left,0,Left,251,High
jou-cmand1DR-20201113,jo,3,28,2,19,Go,Right,0,Right,390,Low
jou-cmand1DR-20201113,jo,3,29,2,20,Go,Left,0,Left,274,High
jou-cmand1DR-20201113,jo,3,30,3,1,Go,Left,0,Left,238,Low
jou-cmand1DR-20201113,jo,3,31,3,2,Go,Left,0,Left,257,Low
jou-cmand1DR-20201113,jo,3,32,3,3,Stop,Left,200,NoResponse,0,Low
jou-cmand1DR-20201113,jo,3,33,3,4,Stop,Right,400,Right,382,High
jou-cmand1DR-20201113,jo,3,34,3,5,Stop,Right,267,NoResponse,0,High
jou-cmand1DR-20201113,jo,3,35,3,6,Go,Left,0,Left,382,Low
jou-cmand1DR-20201113,jo,3,36,3,7,Stop,Right,400,Right,402,High
jou-cmand1DR-20201113,jo,3,37,3,8,Go,Left,0,Left,362,Low
jou-cmand1DR-20201113,jo,3,38,3,9,Stop,Right,200,NoResponse,0,High
jou-cmand1DR-20201113,jo,3,39,3,10,Stop,Left,400,Left,461,Low
jou-cmand1DR-20201113,jo,3,40,3,11,Go,Left,0,Left,674,Low
jou-cmand1DR-20201113,jo,3,41,3,12,Go,Left,0,NoStart,0,Low
jou-cmand1DR-20201113,jo,3,42,3,13,Go,Right,0,Right,292,High
jou-cmand1DR-20201113,jo,3,43,3,14,Go,Left,0,Left,419,Low
jou-cmand1DR-20201113,jo,3,44,3,15,Go,Right,0,Right,228,High
jou-cmand1DR-20201113,jo,3,45,3,16,Stop,Left,267,NoResponse,0,Low
jou-cmand1DR-20201113,jo,3,46,3,17,Stop,Left,333,NoResponse,0,Low
jou-cmand1DR-20201113,jo,3,47,3,18,Stop,Left,400,NoResponse,0,Low
jou-cmand1DR-20201113,jo,3,48,3,19,Stop,Right,483,Right,307,High
jou-cmand1DR-20201113,jo,3,49,3,20,Go,Left,0,NoStart,0,Low
jou-cmand1DR-20201113,jo,3,50,3,21,Go,Left,0,Left,305,Low
jou-cmand1DR-20201113,jo,3,51,3,22,Go,Left,0,NoStart,0,Low
jou-cmand1DR-20201113,jo,3,52,3,23,Go,Right,0,Right,310,High
jou-cmand1DR-20201113,jo,3,53,3,24,Go,Left,0,Left,440,Low
jou-cmand1DR-20201113,jo,3,54,4,1,Go,Left,0,Left,380,High
jou-cmand1DR-20201113,jo,3,55,4,2,Stop,Left,267,Left,257,High
jou-cmand1DR-20201113,jo,3,56,4,3,Go,Left,0,NoStart,0,High
jou-cmand1DR-20201113,jo,3,57,4,4,Stop,Left,50,NoResponse,0,High
jou-cmand1DR-20201113,jo,3,58,4,5,Go,Right,0,Right,579,Low
jou-cmand1DR-20201113,jo,3,59,4,6,Stop,Right,133,NoResponse,0,Low
jou-cmand1DR-20201113,jo,3,60,4,7,Go,Left,0,Left,291,High
jou-cmand1DR-20201113,jo,3,61,4,8,Go,Right,0,Right,477,Low
jou-cmand1DR-20201113,jo,3,62,4,9,Stop,Left,483,Left,258,High
jou-cmand1DR-20201113,jo,3,63,4,10,Go,Left,0,Left,306,High
jou-cmand1DR-20201113,jo,3,64,4,11,Go,Left,0,Left,216,High
jou-cmand1DR-20201113,jo,3,65,4,12,Go,Left,0,Left,248,High
jou-cmand1DR-20201113,jo,3,66,4,13,Go,Left,0,Left,276,High
jou-cmand1DR-20201113,jo,3,67,4,14,Stop,Right,333,NoResponse,0,Low
jou-cmand1DR-20201113,jo,3,68,4,15,Go,Left,0,Left,277,High
jou-cmand1DR-20201113,jo,3,69,4,16,Go,Left,0,Left,273,High
jou-cmand1DR-20201113,jo,3,70,4,17,Go,Right,0,Right,452,Low
jou-cmand1DR-20201113,jo,3,71,4,18,Stop,Left,400,Left,252,High
jou-cmand1DR-20201113,jo,3,72,4,19,Go,Right,0,Right,415,Low
jou-cmand1DR-20201113,jo,3,73,4,20,Stop,Left,200,NoStart,0,High
jou-cmand1DR-20201113,jo,3,74,4,21,Go,Left,0,NoStart,0,High
jou-cmand1DR-20201113,jo,3,75,4,22,Stop,Left,50,NoResponse,0,High
jou-cmand1DR-20201113,jo,3,76,4,23,Stop,Right,200,NoResponse,0,Low
jou-cmand1DR-20201113,jo,3,77,4,24,Stop,Left,400,Left,344,High
jou-cmand1DR-20201113,jo,3,78,4,25,Go,Right,0,Right,383,Low
jou-cmand1DR-20201113,jo,3,79,4,26,Stop,Left,200,Left,260,High
jou-cmand1DR-20201113,jo,3,80,4,27,Stop,Right,50,NoResponse,0,Low
jou-cmand1DR-20201113,jo,3,81,4,28,Go,Right,0,Right,545,Low
jou-cmand1DR-20201113,jo,3,82,4,29,Go,Right,0,NoStart,0,Low
jou-cmand1DR-20201113,jo,3,83,4,30,Go,Left,0,Left,244,High
jou-cmand1DR-20201113,jo,3,84,4,31,Go,Right,0,Right,425,Low
jou-cmand1DR-20201113,jo,3,85,4,32,Go,Left,0,Left,259,High
jou-cmand1DR-20201113,jo,3,86,5,1,Go,Left,0,NoStart,0,Low
jou-cmand1DR-20201113,jo,3,87,5,2,Go,Left,0,Left,256,Low
jou-cmand1DR-20201113,jo,3,88,5,3,Go,Right,0,Right,292,High
jou-cmand1DR-20201113,jo,3,89,5,4,Stop,Right,200,NoResponse,0,High
jou-cmand1DR-20201113,jo,3,90,5,5,Stop,Right,400,NoResponse,0,High
jou-cmand1DR-20201113,jo,3,91,5,6,Stop,Right,483,Right,450,High
jou-cmand1DR-20201113,jo,3,92,5,7,Go,Left,0,Left,475,Low
jou-cmand1DR-20201113,jo,3,93,5,8,Stop,Right,400,Right,304,High
jou-cmand1DR-20201113,jo,3,94,5,9,Go,Left,0,Left,598,Low
jou-cmand1DR-20201113,jo,3,95,5,10,Go,Left,0,NoStart,0,Low
jou-cmand1DR-20201113,jo,3,96,5,11,Go,Left,0,Left,440,Low
jou-cmand1DR-20201113,jo,3,97,5,12,Go,Left,0,NoStart,0,Low
jou-cmand1DR-20201113,jo,3,98,5,13,Go,Right,0,NoStart,0,High
jou-cmand1DR-20201113,jo,3,99,5,14,Go,Left,0,NoStart,0,Low
jou-cmand1DR-20201113,jo,3,100,5,15,Stop,Left,200,NoStart,0,Low
jou-cmand1DR-20201113,jo,3,101,5,16,Go,Left,0,NoStart,0,Low
jou-cmand1DR-20201113,jo,3,102,5,17,Go,Left,0,Left,466,Low
jou-cmand1DR-20201113,jo,3,103,5,18,Go,Left,0,NoStart,0,Low
jou-cmand1DR-20201113,jo,3,104,5,19,Stop,Right,133,NoStart,0,High
jou-cmand1DR-20201113,jo,3,105,5,20,Stop,Left,50,NoResponse,0,Low
jou-cmand1DR-20201113,jo,3,106,5,21,Go,Left,0,NoStart,0,Low
jou-cmand1DR-20201113,jo,3,107,5,22,Go,Left,0,Left,307,Low
jou-cmand1DR-20201113,jo,3,108,5,23,Go,Left,0,Left,398,Low
jou-cmand1DR-20201113,jo,3,109,6,1,Go,Left,0,NoStart,0,High
jou-cmand1DR-20201113,jo,3,110,6,2,Go,Right,0,NoStart,0,Low
jou-cmand1DR-20201113,jo,3,111,6,3,Go,Right,0,Right,222,Low
jou-cmand1DR-20201113,jo,3,112,6,4,Stop,Left,267,NoStart,0,High
jou-cmand1DR-20201113,jo,3,113,6,5,Go,Right,0,NoStart,0,Low
jou-cmand1DR-20201113,jo,3,114,6,6,Go,Left,0,NoStart,0,High
jou-cmand1DR-20201113,jo,3,115,6,7,Go,Right,0,Right,262,Low
jou-cmand1DR-20201113,jo,3,116,6,8,Go,Left,0,NoStart,0,High
jou-cmand1DR-20201113,jo,3,117,6,9,Go,Right,0,NoStart,0,Low
jou-cmand1DR-20201113,jo,3,118,6,10,Go,Right,0,Right,333,Low
jou-cmand1DR-20201113,jo,3,119,6,11,Go,Right,0,NoStart,0,Low
jou-cmand1DR-20201113,jo,3,120,6,12,Stop,Right,333,NoStart,0,Low
jou-cmand1DR-20201113,jo,3,121,6,13,Go,Left,0,NoStart,0,High
jou-cmand1DR-20201113,jo,3,122,6,14,Go,Right,0,NoStart,0,Low
jou-cmand1DR-20201113,jo,3,123,6,15,Go,Left,0,NoStart,0,High
jou-cmand1DR-20201113,jo,3,124,6,16,Stop,Left,333,NoStart,0,High
jou-cmand1DR-20201113,jo,3,125,6,17,Stop,Right,333,NoStart,0,Low
jou-cmand1DR-20201113,jo,3,126,6,18,Stop,Left,333,NoStart,0,High
jou-cmand1DR-20201113,jo,3,127,6,19,Stop,Left,333,NoStart,0,High
jou-cmand1DR-20201113,jo,3,128,6,20,Go,Left,0,NoStart,0,High
jou-cmand1DR-20201113,jo,3,129,6,21,Go,Left,0,NoStart,0,High
jou-cmand1DR-20201113,jo,3,130,6,22,Stop,Left,333,NoStart,0,High
jou-cmand1DR-20201113,jo,3,131,6,23,Stop,Left,333,NoStart,0,High
jou-cmand1DR-20201113,jo,3,132,6,24,Stop,Right,333,NoStart,0,Low
jou-cmand1DR-20201113,jo,3,133,6,25,Go,Left,0,NoStart,0,High
jou-cmand1DR-20201113,jo,3,134,6,26,Stop,Right,333,NoStart,0,Low
jou-cmand1DR-20201113,jo,3,135,6,27,Stop,Right,333,NoStart,0,Low
jou-cmand1DR-20201113,jo,3,136,6,28,Go,Right,0,NoStart,0,Low
jou-cmand1DR-20201113,jo,3,137,6,29,Go,Left,0,NoStart,0,High
jou-cmand1DR-20201113,jo,3,138,6,30,Stop,Left,333,NoStart,0,High
jou-cmand1DR-20201113,jo,3,139,6,31,Go,Right,0,NoStart,0,Low
jou-cmand1DR-20201113,jo,3,140,6,32,Go,Left,0,NoStart,0,High
jou-cmand1DR-20201113,jo,3,141,6,33,Go,Right,0,NoStart,0,Low
jou-cmand1DR-20201113,jo,3,142,6,34,Go,Right,0,NoStart,0,Low
jou-cmand1DR-20201113,jo,3,143,6,35,Go,Right,0,NoStart,0,Low
jou-cmand1DR-20201113,jo,3,144,6,36,Stop,Right,333,NoStart,0,Low
jou-cmand1DR-20201113,jo,3,145,6,37,Go,Left,0,NoStart,0,High
jou-cmand1DR-20201113,jo,3,146,6,38,Stop,Left,333,NoStart,0,High
jou-cmand1DR-20201113,jo,3,147,6,39,Stop,Right,333,NoStart,0,Low
jou-cmand1DR-20201113,jo,3,148,6,40,Stop,Left,333,NoStart,0,High
jou-cmand1DR-20201113,jo,3,149,6,41,Stop,Right,333,NoStart,0,Low
jou-cmand1DR-20201113,jo,3,150,6,42,Go,Right,0,NoStart,0,Low
jou-cmand1DR-20201113,jo,3,151,6,43,Go,Right,0,NoStart,0,Low
jou-cmand1DR-20201113,jo,3,152,6,44,Go,Left,0,NoStart,0,High
jou-cmand1DR-20201113,jo,3,153,6,45,Go,Left,0,NoStart,0,High
jou-cmand1DR-20201113,jo,3,154,6,46,Stop,Left,333,NoStart,0,High
jou-cmand1DR-20201113,jo,3,155,6,47,Stop,Right,333,NoStart,0,Low
jou-cmand1DR-20201113,jo,3,156,6,48,Go,Left,0,NoStart,0,High
jou-cmand1DR-20201113,jo,3,157,6,49,Go,Right,0,NoStart,0,Low
jou-cmand1DR-20201113,jo,3,158,6,50,Go,Left,0,NoStart,0,High
jou-cmand1DR-20201113,jo,3,159,6,51,Go,Left,0,NoStart,0,High
jou-cmand1DR-20201113,jo,3,160,6,52,Go,Left,0,NoStart,0,High
jou-cmand1DR-20201113,jo,3,161,6,53,Go,Left,0,NoStart,0,High
jou-cmand1DR-20201113,jo,3,162,6,54,Stop,Right,333,NoStart,0,Low
jou-cmand1DR-20201113,jo,3,163,6,55,Stop,Left,333,NoStart,0,High
jou-cmand1DR-20201113,jo,3,164,6,56,Go,Right,0,NoStart,0,Low
jou-cmand1DR-20201113,jo,3,165,6,57,Go,Right,0,NoStart,0,Low
jou-cmand1DR-20201113,jo,3,166,6,58,Go,Left,0,NoStart,0,High
jou-cmand1DR-20201113,jo,3,167,6,59,Go,Left,0,NoStart,0,High
jou-cmand1DR-20201113,jo,3,168,6,60,Go,Left,0,NoStart,0,High
jou-cmand1DR-20201113,jo,3,169,6,61,Go,Right,0,NoStart,0,Low
jou-cmand1DR-20201113,jo,3,170,6,62,Stop,Left,333,NoStart,0,High
jou-cmand1DR-20201113,jo,3,171,6,63,Go,Right,0,NoStart,0,Low
jou-cmand1DR-20201113,jo,3,172,6,64,Stop,Right,333,NoStart,0,Low
jou-cmand1DR-20201113,jo,3,173,6,65,Go,Left,0,NoStart,0,High
jou-cmand1DR-20201113,jo,3,174,6,66,Go,Right,0,NoStart,0,Low
jou-cmand1DR-20201113,jo,3,175,6,67,Go,Right,0,NoStart,0,Low
jou-cmand1DR-20201113,jo,3,176,6,68,Go,Right,0,NoStart,0,Low
jou-cmand1DR-20201113,jo,3,177,6,69,Go,Left,0,NoStart,0,High
jou-cmand1DR-20201113,jo,3,178,6,70,Go,Left,0,NoStart,0,High
jou-cmand1DR-20201113,jo,3,179,6,71,Go,Left,0,NoStart,0,High
jou-cmand1DR-20201113,jo,3,180,6,72,Go,Left,0,NoStart,0,High
jou-cmand1DR-20201113,jo,3,181,6,73,Go,Right,0,NoStart,0,Low
jou-cmand1DR-20201113,jo,3,182,6,74,Stop,Right,333,NoStart,0,Low
jou-cmand1DR-20201113,jo,3,183,6,75,Stop,Right,333,NoStart,0,Low
jou-cmand1DR-20201113,jo,3,184,6,76,Go,Left,0,NoStart,0,High
jou-cmand1DR-20201113,jo,3,185,6,77,Stop,Left,333,NoStart,0,High
jou-cmand1DR-20201113,jo,3,186,6,78,Go,Right,0,NoStart,0,Low
jou-cmand1DR-20201113,jo,3,187,6,79,Go,Right,0,NoStart,0,Low
jou-cmand1DR-20201113,jo,3,188,6,80,Go,Left,0,NoStart,0,High
jou-cmand1DR-20201113,jo,3,189,6,81,Go,Left,0,NoStart,0,High
jou-cmand1DR-20201113,jo,3,190,6,82,Stop,Right,333,NoStart,0,Low
jou-cmand1DR-20201113,jo,3,191,6,83,Stop,Left,333,NoStart,0,High
jou-cmand1DR-20201113,jo,3,192,6,84,Go,Right,0,NoStart,0,Low
jou-cmand1DR-20201113,jo,3,193,6,85,Go,Left,0,NoStart,0,High
jou-cmand1DR-20201113,jo,3,194,6,86,Stop,Left,333,NoStart,0,High
jou-cmand1DR-20201113,jo,3,195,6,87,Go,Left,0,NoStart,0,High
jou-cmand1DR-20201113,jo,3,196,6,88,Go,Right,0,NoStart,0,Low
jou-cmand1DR-20201113,jo,3,197,6,89,Go,Left,0,NoStart,0,High
jou-cmand1DR-20201113,jo,3,198,6,90,Go,Left,0,NoStart,0,High
jou-cmand1DR-20201113,jo,3,199,6,91,Go,Right,0,NoStart,0,Low
jou-cmand1DR-20201113,jo,3,200,6,92,Go,Right,0,NoStart,0,Low
jou-cmand1DR-20201113,jo,3,201,6,93,Stop,Right,333,NoStart,0,Low
jou-cmand1DR-20201113,jo,3,202,6,94,Go,Left,0,NoStart,0,High
jou-cmand1DR-20201113,jo,3,203,6,95,Stop,Left,333,NoStart,0,High
jou-cmand1DR-20201113,jo,3,204,6,96,Stop,Right,333,NoStart,0,Low
jou-cmand1DR-20201113,jo,3,205,6,97,Go,Right,0,NoStart,0,Low
jou-cmand1DR-20201113,jo,3,206,6,98,Stop,Left,333,NoStart,0,High
jou-cmand1DR-20201113,jo,3,207,6,99,Go,Left,0,NoStart,0,High
jou-cmand1DR-20201113,jo,3,208,6,100,Go,Left,0,NoStart,0,High
jou-cmand1DR-20201113,jo,3,209,6,101,Go,Left,0,NoStart,0,High
jou-cmand1DR-20201113,jo,3,210,6,102,Go,Left,0,NoStart,0,High
jou-cmand1DR-20201113,jo,3,211,6,103,Stop,Left,333,NoStart,0,High
jou-cmand1DR-20201113,jo,3,212,6,104,Go,Left,0,NoStart,0,High
jou-cmand1DR-20201113,jo,3,213,6,105,Stop,Left,333,NoStart,0,High
jou-cmand1DR-20201113,jo,3,214,6,106,Stop,Left,333,NoStart,0,High
jou-cmand1DR-20201113,jo,3,215,6,107,Go,Right,0,NoStart,0,Low
jou-cmand1DR-20201113,jo,3,216,6,108,Go,Right,0,NoStart,0,Low
jou-cmand1DR-20201113,jo,3,217,6,109,Stop,Left,333,NoStart,0,High
jou-cmand1DR-20201113,jo,3,218,6,110,Stop,Right,333,NoStart,0,Low
jou-cmand1DR-20201113,jo,3,219,6,111,Stop,Right,333,NoStart,0,Low
jou-cmand1DR-20201113,jo,3,220,6,112,Go,Left,0,NoStart,0,High
jou-cmand1DR-20201113,jo,3,221,6,113,Go,Right,0,NoStart,0,Low
jou-cmand1DR-20201113,jo,3,222,6,114,Stop,Left,333,NoStart,0,High
jou-cmand1DR-20201113,jo,3,223,6,115,Stop,Left,333,NoStart,0,High
jou-cmand1DR-20201113,jo,3,224,6,116,Stop,Right,333,NoStart,0,Low
jou-cmand1DR-20201113,jo,3,225,6,117,Go,Right,0,NoStart,0,Low
jou-cmand1DR-20201113,jo,3,226,6,118,Go,Right,0,NoStart,0,Low
jou-cmand1DR-20201113,jo,3,227,6,119,Stop,Right,333,NoStart,0,Low
jou-cmand1DR-20201113,jo,3,228,6,120,Stop,Left,333,NoStart,0,High
jou-cmand1DR-20201113,jo,3,229,6,121,Go,Right,0,NoStart,0,Low
jou-cmand1DR-20201113,jo,3,230,6,122,Stop,Left,333,NoStart,0,High
jou-cmand1DR-20201113,jo,3,231,6,123,Go,Right,0,NoStart,0,Low
jou-cmand1DR-20201113,jo,3,232,6,124,Go,Right,0,NoStart,0,Low
jou-cmand1DR-20201113,jo,3,233,6,125,Stop,Left,333,NoStart,0,High
jou-cmand1DR-20201113,jo,3,234,6,126,Stop,Right,333,NoStart,0,Low
jou-cmand1DR-20201113,jo,3,235,6,127,Go,Right,0,NoStart,0,Low
jou-cmand1DR-20201113,jo,3,236,6,128,Stop,Right,333,NoStart,0,Low
jou-cmand1DR-20201113,jo,3,237,6,129,Stop,Left,333,NoStart,0,High
jou-cmand1DR-20201113,jo,3,238,6,130,Go,Left,0,NoStart,0,High
jou-cmand1DR-20201113,jo,3,239,6,131,Stop,Right,333,NoStart,0,Low
jou-cmand1DR-20201113,jo,3,240,6,132,Stop,Right,333,NoStart,0,Low
jou-cmand1DR-20201113,jo,3,241,6,133,Go,Left,0,NoStart,0,High
jou-cmand1DR-20201113,jo,3,242,6,134,Go,Right,0,NoStart,0,Low
jou-cmand1DR-20201113,jo,3,243,6,135,Stop,Right,333,NoStart,0,Low
jou-cmand1DR-20201113,jo,3,244,6,136,Go,Left,0,NoStart,0,High
jou-cmand1DR-20201113,jo,3,245,6,137,Stop,Right,333,NoStart,0,Low
jou-cmand1DR-20201113,jo,3,246,6,138,Go,Left,0,NoStart,0,High
jou-cmand1DR-20201113,jo,3,247,6,139,Stop,Right,333,NoStart,0,Low
jou-cmand1DR-20201113,jo,3,248,6,140,Go,Left,0,NoStart,0,High
jou-cmand1DR-20201113,jo,3,249,6,141,Stop,Right,333,NoStart,0,Low
jou-cmand1DR-20201113,jo,3,250,6,142,Go,Right,0,NoStart,0,Low
jou-cmand1DR-20201113,jo,3,251,6,143,Go,Right,0,NoStart,0,Low
jou-cmand1DR-20201113,jo,3,252,6,144,Go,Right,0,NoStart,0,Low
jou-cmand1DR-20201113,jo,3,253,6,145,Go,Right,0,NoStart,0,Low
jou-cmand1DR-20201113,jo,3,254,6,146,Stop,Left,333,NoStart,0,High
jou-cmand1DR-20201113,jo,3,255,6,147,Go,Right,0,NoStart,0,Low
jou-cmand1DR-20201113,jo,3,256,6,148,Go,Right,0,NoStart,0,Low
jou-cmand1DR-20201113,jo,3,257,6,149,Go,Right,0,NoStart,0,Low
jou-cmand1DR-20201113,jo,3,258,6,150,Go,Left,0,NoStart,0,High
jou-cmand1DR-20201113,jo,3,259,6,151,Stop,Left,333,NoStart,0,High
jou-cmand1DR-20201113,jo,3,260,6,152,Stop,Right,333,NoStart,0,Low
jou-cmand1DR-20201113,jo,3,261,6,153,Go,Right,0,NoStart,0,Low
jou-cmand1DR-20201113,jo,3,262,6,154,Go,Right,0,NoStart,0,Low
jou-cmand1DR-20201113,jo,3,263,6,155,Stop,Left,333,NoStart,0,High
jou-cmand1DR-20201113,jo,3,264,6,156,Stop,Right,333,NoStart,0,Low
jou-cmand1DR-20201113,jo,3,265,6,157,Go,Left,0,NoStart,0,High
jou-cmand1DR-20201113,jo,3,266,6,158,Stop,Left,333,NoStart,0,High
jou-cmand1DR-20201113,jo,3,267,6,159,Stop,Right,333,NoStart,0,Low
jou-cmand1DR-20201113,jo,3,268,6,160,Stop,Left,333,NoStart,0,High
jou-cmand1DR-20201113,jo,3,269,6,161,Go,Left,0,NoStart,0,High
jou-cmand1DR-20201113,jo,3,270,6,162,Go,Right,0,NoStart,0,Low
jou-cmand1DR-20201113,jo,3,271,6,163,Go,Left,0,NoStart,0,High
jou-cmand1DR-20201113,jo,3,272,6,164,Go,Left,0,NoStart,0,High
jou-cmand1DR-20201113,jo,3,273,6,165,Go,Right,0,NoStart,0,Low
jou-cmand1DR-20201113,jo,3,274,6,166,Go,Left,0,NoStart,0,High
jou-cmand1DR-20201113,jo,3,275,6,167,Go,Right,0,NoStart,0,Low
jou-cmand1DR-20201113,jo,3,276,6,168,Stop,Left,333,NoStart,0,High
jou-cmand1DR-20201113,jo,3,277,6,169,Go,Left,0,NoStart,0,High
jou-cmand1DR-20201113,jo,3,278,6,170,Go,Left,0,NoStart,0,High
jou-cmand1DR-20201113,jo,3,279,6,171,Stop,Left,333,NoStart,0,High
jou-cmand1DR-20201113,jo,3,280,6,172,Go,Left,0,NoStart,0,High
jou-cmand1DR-20201113,jo,3,281,6,173,Go,Right,0,NoStart,0,Low
jou-cmand1DR-20201113,jo,3,282,6,174,Go,Right,0,NoStart,0,Low
jou-cmand1DR-20201113,jo,3,283,6,175,Stop,Left,333,NoStart,0,High
jou-cmand1DR-20201113,jo,3,284,6,176,Stop,Right,333,NoStart,0,Low
jou-cmand1DR-20201113,jo,3,285,6,177,Go,Left,0,NoStart,0,High
jou-cmand1DR-20201113,jo,3,286,6,178,Stop,Right,333,NoStart,0,Low
jou-cmand1DR-20201113,jo,3,287,6,179,Stop,Right,333,NoStart,0,Low
jou-cmand1DR-20201113,jo,3,288,6,180,Stop,Right,333,NoStart,0,Low
jou-cmand1DR-20201113,jo,3,289,6,181,Stop,Left,333,NoStart,0,High
jou-cmand1DR-20201113,jo,3,290,6,182,Go,Left,0,NoStart,0,High
jou-cmand1DR-20201113,jo,3,291,6,183,Go,Left,0,NoStart,0,High
jou-cmand1DR-20201113,jo,3,292,6,184,Stop,Right,333,NoStart,0,Low
jou-cmand1DR-20201113,jo,3,293,6,185,Stop,Right,333,NoStart,0,Low
jou-cmand1DR-20201113,jo,3,294,6,186,Go,Left,0,NoStart,0,High
jou-cmand1DR-20201113,jo,3,295,6,187,Stop,Right,333,NoStart,0,Low
jou-cmand1DR-20201113,jo,3,296,6,188,Go,Left,0,NoStart,0,High
jou-cmand1DR-20201113,jo,3,297,6,189,Go,Left,0,NoStart,0,High
jou-cmand1DR-20201113,jo,3,298,6,190,Go,Right,0,NoStart,0,Low
jou-cmand1DR-20201113,jo,3,299,6,191,Go,Left,0,NoStart,0,High
jou-cmand1DR-20201113,jo,3,300,6,192,Stop,Left,333,NoStart,0,High
jou-cmand1DR-20201113,jo,3,301,6,193,Stop,Left,333,NoStart,0,High
jou-cmand1DR-20201113,jo,3,302,6,194,Go,Right,0,NoStart,0,Low
jou-cmand1DR-20201113,jo,3,303,6,195,Go,Left,0,NoStart,0,High
jou-cmand1DR-20201113,jo,3,304,6,196,Go,Right,0,NoStart,0,Low
jou-cmand1DR-20201113,jo,3,305,6,197,Go,Left,0,NoStart,0,High
jou-cmand1DR-20201113,jo,3,306,6,198,Go,Left,0,NoStart,0,High
jou-cmand1DR-20201113,jo,3,307,6,199,Go,Right,0,NoStart,0,Low
jou-cmand1DR-20201113,jo,3,308,6,200,Go,Left,0,NoStart,0,High
jou-cmand1DR-20201113,jo,3,309,6,201,Stop,Right,333,NoStart,0,Low
jou-cmand1DR-20201113,jo,3,310,6,202,Stop,Left,333,NoStart,0,High
jou-cmand1DR-20201113,jo,3,311,6,203,Go,Right,0,NoStart,0,Low
jou-cmand1DR-20201113,jo,3,312,6,204,Go,Right,0,NoStart,0,Low
jou-cmand1DR-20201113,jo,3,313,6,205,Go,Left,0,NoStart,0,High
jou-cmand1DR-20201113,jo,3,314,6,206,Stop,Right,333,NoStart,0,Low
jou-cmand1DR-20201113,jo,3,315,6,207,Stop,Right,333,NoStart,0,Low
jou-cmand1DR-20201113,jo,3,316,6,208,Stop,Left,333,NoStart,0,High
jou-cmand1DR-20201113,jo,3,317,6,209,Go,Left,0,NoStart,0,High
jou-cmand1DR-20201113,jo,3,318,6,210,Stop,Left,333,NoStart,0,High
jou-cmand1DR-20201113,jo,3,319,6,211,Go,Left,0,NoStart,0,High
jou-cmand1DR-20201113,jo,3,320,6,212,Stop,Left,333,NoStart,0,High
jou-cmand1DR-20201113,jo,3,321,6,213,Stop,Left,333,NoStart,0,High
jou-cmand1DR-20201113,jo,3,322,6,214,Go,Left,0,NoStart,0,High
jou-cmand1DR-20201113,jo,3,323,6,215,Go,Right,0,NoStart,0,Low
jou-cmand1DR-20201113,jo,3,324,6,216,Go,Left,0,NoStart,0,High
jou-cmand1DR-20201113,jo,3,325,6,217,Stop,Left,333,NoStart,0,High
jou-cmand1DR-20201113,jo,3,326,6,218,Stop,Right,333,NoStart,0,Low
jou-cmand1DR-20201113,jo,3,327,6,219,Stop,Left,333,NoStart,0,High
jou-cmand1DR-20201113,jo,3,328,6,220,Go,Left,0,NoStart,0,High
jou-cmand1DR-20201113,jo,3,329,6,221,Go,Right,0,NoStart,0,Low
jou-cmand1DR-20201113,jo,3,330,6,222,Go,Right,0,NoStart,0,Low
jou-cmand1DR-20201113,jo,3,331,6,223,Go,Left,0,NoStart,0,High
jou-cmand1DR-20201113,jo,3,332,6,224,Stop,Left,333,NoStart,0,High
jou-cmand1DR-20201113,jo,3,333,6,225,Go,Left,0,NoStart,0,High
jou-cmand1DR-20201113,jo,3,334,6,226,Go,Right,0,NoStart,0,Low
jou-cmand1DR-20201113,jo,3,335,6,227,Go,Right,0,NoStart,0,Low
jou-cmand1DR-20201113,jo,3,336,6,228,Go,Left,0,NoStart,0,High
jou-cmand1DR-20201113,jo,3,337,6,229,Stop,Left,333,NoStart,0,High
jou-cmand1DR-20201113,jo,3,338,6,230,Stop,Left,333,NoStart,0,High
jou-cmand1DR-20201113,jo,3,339,6,231,Stop,Left,333,NoStart,0,High
jou-cmand1DR-20201113,jo,3,340,6,232,Go,Right,0,NoStart,0,Low
jou-cmand1DR-20201113,jo,3,341,6,233,Go,Left,0,NoStart,0,High
jou-cmand1DR-20201113,jo,3,342,6,234,Go,Left,0,NoStart,0,High
jou-cmand1DR-20201113,jo,3,343,6,235,Stop,Right,333,NoStart,0,Low
jou-cmand1DR-20201113,jo,3,344,6,236,Stop,Left,333,NoStart,0,High
jou-cmand1DR-20201113,jo,3,345,6,237,Go,Left,0,NoStart,0,High
jou-cmand1DR-20201113,jo,3,346,6,238,Stop,Right,333,NoStart,0,Low
jou-cmand1DR-20201113,jo,3,347,6,239,Go,Left,0,NoStart,0,High
jou-cmand1DR-20201113,jo,3,348,6,240,Stop,Left,333,NoStart,0,High
jou-cmand1DR-20201113,jo,3,349,6,241,Go,Left,0,NoStart,0,High
jou-cmand1DR-20201113,jo,3,350,6,242,Stop,Left,333,NoStart,0,High
jou-cmand1DR-20201113,jo,3,351,6,243,Stop,Left,333,NoStart,0,High
jou-cmand1DR-20201113,jo,3,352,6,244,Stop,Right,333,NoStart,0,Low
jou-cmand1DR-20201113,jo,3,353,6,245,Go,Left,0,NoStart,0,High
jou-cmand1DR-20201113,jo,3,354,6,246,Go,Left,0,NoStart,0,High
jou-cmand1DR-20201113,jo,3,355,6,247,Stop,Left,333,NoStart,0,High
jou-cmand1DR-20201113,jo,3,356,6,248,Stop,Right,333,NoStart,0,Low
jou-cmand1DR-20201113,jo,3,357,6,249,Stop,Right,333,NoStart,0,Low
jou-cmand1DR-20201113,jo,3,358,6,250,Go,Right,0,NoStart,0,Low
jou-cmand1DR-20201113,jo,3,359,6,251,Go,Right,0,NoStart,0,Low
jou-cmand1DR-20201113,jo,3,360,6,252,Stop,Right,333,NoStart,0,Low
jou-cmand1DR-20201113,jo,3,361,6,253,Stop,Right,333,NoStart,0,Low
jou-cmand1DR-20201113,jo,3,362,6,254,Stop,Right,333,NoStart,0,Low
jou-cmand1DR-20201113,jo,3,363,6,255,Go,Right,0,NoStart,0,Low
jou-cmand1DR-20201113,jo,3,364,6,256,Stop,Left,333,NoStart,0,High
jou-cmand1DR-20201113,jo,3,365,6,257,Stop,Right,333,NoStart,0,Low
jou-cmand1DR-20201113,jo,3,366,6,258,Stop,Left,333,NoStart,0,High
jou-cmand1DR-20201113,jo,3,367,6,259,Stop,Right,333,NoStart,0,Low
jou-cmand1DR-20201113,jo,3,368,6,260,Go,Right,0,NoStart,0,Low
jou-cmand1DR-20201113,jo,3,369,6,261,Go,Right,0,NoStart,0,Low
jou-cmand1DR-20201113,jo,3,370,6,262,Go,Left,0,NoStart,0,High
jou-cmand1DR-20201113,jo,3,371,6,263,Go,Left,0,NoStart,0,High
jou-cmand1DR-20201113,jo,3,372,6,264,Go,Right,0,NoStart,0,Low
jou-cmand1DR-20201113,jo,3,373,6,265,Go,Left,0,NoStart,0,High
jou-cmand1DR-20201113,jo,3,374,6,266,Go,Right,0,NoStart,0,Low
jou-cmand1DR-20201113,jo,3,375,6,267,Stop,Left,333,NoStart,0,High
jou-cmand1DR-20201113,jo,3,376,6,268,Stop,Left,333,NoStart,0,High
jou-cmand1DR-20201113,jo,3,377,6,269,Stop,Right,333,NoStart,0,Low
jou-cmand1DR-20201113,jo,3,378,6,270,Go,Right,0,NoStart,0,Low
jou-cmand1DR-20201113,jo,3,379,6,271,Stop,Left,333,NoStart,0,High
jou-cmand1DR-20201113,jo,3,380,6,272,Go,Left,0,NoStart,0,High
jou-cmand1DR-20201113,jo,3,381,6,273,Go,Left,0,NoStart,0,High
jou-cmand1DR-20201113,jo,3,382,6,274,Go,Left,0,NoStart,0,High
jou-cmand1DR-20201113,jo,3,383,6,275,Go,Left,0,NoStart,0,High
jou-cmand1DR-20201113,jo,3,384,6,276,Stop,Right,333,NoStart,0,Low
jou-cmand1DR-20201113,jo,3,385,6,277,Go,Left,0,NoStart,0,High
jou-cmand1DR-20201113,jo,3,386,6,278,Stop,Left,333,NoStart,0,High
jou-cmand1DR-20201113,jo,3,387,6,279,Stop,Right,333,NoStart,0,Low
jou-cmand1DR-20201113,jo,3,388,6,280,Go,Left,0,NoStart,0,High
jou-cmand1DR-20201113,jo,3,389,6,281,Go,Left,0,NoStart,0,High
jou-cmand1DR-20201113,jo,3,390,6,282,Stop,Right,333,NoStart,0,Low
jou-cmand1DR-20201113,jo,3,391,6,283,Stop,Right,333,NoStart,0,Low
jou-cmand1DR-20201113,jo,3,392,6,284,Stop,Right,333,NoStart,0,Low
jou-cmand1DR-20201113,jo,3,393,6,285,Go,Right,0,NoStart,0,Low
jou-cmand1DR-20201113,jo,3,394,6,286,Go,Left,0,NoStart,0,High
jou-cmand1DR-20201113,jo,3,395,6,287,Go,Right,0,NoStart,0,Low
jou-cmand1DR-20201113,jo,3,396,6,288,Stop,Left,333,NoStart,0,High
jou-cmand1DR-20201113,jo,3,397,6,289,Go,Left,0,NoStart,0,High
jou-cmand1DR-20201113,jo,3,398,6,290,Stop,Left,333,NoStart,0,High
jou-cmand1DR-20201113,jo,3,399,6,291,Stop,Left,333,NoStart,0,High
jou-cmand1DR-20201113,jo,3,400,6,292,Go,Left,0,NoStart,0,High
jou-cmand1DR-20201113,jo,3,401,6,293,Go,Left,0,NoStart,0,High
jou-cmand1DR-20201113,jo,3,402,6,294,Stop,Left,333,NoStart,0,High
jou-cmand1DR-20201113,jo,3,403,6,295,Go,Right,0,NoStart,0,Low
jou-cmand1DR-20201113,jo,3,404,6,296,Stop,Left,333,NoStart,0,High
jou-cmand1DR-20201113,jo,3,405,6,297,Go,Right,0,NoStart,0,Low
jou-cmand1DR-20201113,jo,3,406,6,298,Go,Right,0,NoStart,0,Low
jou-cmand1DR-20201113,jo,3,407,6,299,Stop,Left,333,NoStart,0,High
jou-cmand1DR-20201113,jo,3,408,6,300,Go,Left,0,NoStart,0,High
jou-cmand1DR-20201113,jo,3,409,6,301,Stop,Right,333,NoStart,0,Low
jou-cmand1DR-20201113,jo,3,410,6,302,Go,Right,0,NoStart,0,Low
jou-cmand1DR-20201113,jo,3,411,6,303,Go,Left,0,NoStart,0,High
jou-cmand1DR-20201113,jo,3,412,6,304,Go,Left,0,NoStart,0,High
jou-cmand1DR-20201113,jo,3,413,6,305,Go,Right,0,NoStart,0,Low
jou-cmand1DR-20201113,jo,3,414,6,306,Stop,Right,333,NoStart,0,Low
jou-cmand1DR-20201113,jo,3,415,6,307,Go,Left,0,NoStart,0,High
jou-cmand1DR-20201113,jo,3,416,6,308,Go,Right,0,NoStart,0,Low
jou-cmand1DR-20201113,jo,3,417,6,309,Go,Right,0,NoStart,0,Low
jou-cmand1DR-20201113,jo,3,418,6,310,Go,Right,0,NoStart,0,Low
jou-cmand1DR-20201113,jo,3,419,6,311,Go,Right,0,NoStart,0,Low
jou-cmand1DR-20201113,jo,3,420,6,312,Stop,Right,333,NoStart,0,Low
jou-cmand1DR-20201113,jo,3,421,6,313,Go,Right,0,NoStart,0,Low
jou-cmand1DR-20201113,jo,3,422,6,314,Go,Right,0,NoStart,0,Low
jou-cmand1DR-20201113,jo,3,423,6,315,Stop,Left,333,NoStart,0,High
jou-cmand1DR-20201113,jo,3,424,6,316,Go,Left,0,NoStart,0,High
jou-cmand1DR-20201113,jo,3,425,6,317,Stop,Right,333,NoStart,0,Low
jou-cmand1DR-20201113,jo,3,426,6,318,Stop,Left,333,NoStart,0,High
jou-cmand1DR-20201113,jo,3,427,6,319,Go,Right,0,NoStart,0,Low
jou-cmand1DR-20201113,jo,3,428,6,320,Go,Right,0,NoStart,0,Low
jou-cmand1DR-20201113,jo,3,429,6,321,Stop,Right,333,NoStart,0,Low
jou-cmand1DR-20201113,jo,3,430,6,322,Stop,Left,333,NoStart,0,High
jou-cmand1DR-20201113,jo,3,431,6,323,Go,Left,0,NoStart,0,High
jou-cmand1DR-20201113,jo,3,432,6,324,Go,Left,0,NoStart,0,High
jou-cmand1DR-20201113,jo,3,433,6,325,Stop,Right,333,NoStart,0,Low
jou-cmand1DR-20201113,jo,3,434,6,326,Go,Left,0,NoStart,0,High
jou-cmand1DR-20201113,jo,3,435,6,327,Go,Right,0,NoStart,0,Low
jou-cmand1DR-20201113,jo,3,436,6,328,Stop,Left,333,NoStart,0,High
jou-cmand1DR-20201113,jo,3,437,6,329,Go,Right,0,NoStart,0,Low
jou-cmand1DR-20201113,jo,3,438,6,330,Stop,Left,333,NoStart,0,High
jou-cmand1DR-20201113,jo,3,439,6,331,Go,Right,0,NoStart,0,Low
jou-cmand1DR-20201113,jo,3,440,6,332,Stop,Left,333,NoStart,0,High
jou-cmand1DR-20201113,jo,3,441,6,333,Stop,Right,333,NoStart,0,Low
jou-cmand1DR-20201113,jo,3,442,6,334,Stop,Right,333,NoStart,0,Low
jou-cmand1DR-20201113,jo,3,443,6,335,Go,Right,0,NoStart,0,Low
jou-cmand1DR-20201113,jo,3,444,6,336,Go,Right,0,NoStart,0,Low
jou-cmand1DR-20201113,jo,3,445,6,337,Stop,Right,333,NoStart,0,Low
jou-cmand1DR-20201113,jo,3,446,6,338,Stop,Left,333,NoStart,0,High
jou-cmand1DR-20201113,jo,3,447,6,339,Stop,Right,333,NoStart,0,Low
jou-cmand1DR-20201113,jo,3,448,6,340,Go,Left,0,NoStart,0,High
jou-cmand1DR-20201113,jo,3,449,6,341,Go,Left,0,NoStart,0,High
jou-cmand1DR-20201113,jo,3,450,6,342,Go,Left,0,NoStart,0,High
jou-cmand1DR-20201113,jo,3,451,6,343,Stop,Left,333,NoStart,0,High
jou-cmand1DR-20201113,jo,3,452,6,344,Go,Right,0,NoStart,0,Low
jou-cmand1DR-20201113,jo,3,453,6,345,Stop,Left,333,NoStart,0,High
jou-cmand1DR-20201113,jo,3,454,6,346,Stop,Right,333,NoStart,0,Low
jou-cmand1DR-20201113,jo,3,455,6,347,Go,Left,0,NoStart,0,High
jou-cmand1DR-20201113,jo,3,456,6,348,Stop,Right,333,NoStart,0,Low
jou-cmand1DR-20201113,jo,3,457,6,349,Stop,Right,333,NoStart,0,Low
jou-cmand1DR-20201113,jo,3,458,6,350,Stop,Right,333,NoStart,0,Low
jou-cmand1DR-20201113,jo,3,459,6,351,Go,Right,0,NoStart,0,Low
jou-cmand1DR-20201113,jo,3,460,6,352,Stop,Right,333,NoStart,0,Low
jou-cmand1DR-20201113,jo,3,461,6,353,Stop,Right,333,NoStart,0,Low
jou-cmand1DR-20201113,jo,3,462,6,354,Go,Left,0,NoStart,0,High
jou-cmand1DR-20201113,jo,3,463,6,355,Go,Left,0,NoStart,0,High
jou-cmand1DR-20201113,jo,3,464,6,356,Go,Right,0,NoStart,0,Low
jou-cmand1DR-20201113,jo,3,465,6,357,Stop,Right,333,NoStart,0,Low
jou-cmand1DR-20201113,jo,3,466,6,358,Go,Left,0,NoStart,0,High
jou-cmand1DR-20201113,jo,3,467,6,359,Go,Right,0,NoStart,0,Low
jou-cmand1DR-20201113,jo,3,468,6,360,Go,Right,0,NoStart,0,Low
jou-cmand1DR-20201113,jo,3,469,6,361,Stop,Left,333,NoStart,0,High
jou-cmand1DR-20201113,jo,3,470,6,362,Stop,Left,333,NoStart,0,High
jou-cmand1DR-20201113,jo,3,471,6,363,Go,Right,0,NoStart,0,Low
jou-cmand1DR-20201113,jo,3,472,6,364,Stop,Left,333,NoStart,0,High
jou-cmand1DR-20201113,jo,3,473,6,365,Go,Left,0,NoStart,0,High
jou-cmand1DR-20201113,jo,3,474,6,366,Go,Right,0,NoStart,0,Low
jou-cmand1DR-20201113,jo,3,475,6,367,Stop,Left,333,NoStart,0,High
jou-cmand1DR-20201113,jo,3,476,6,368,Go,Left,0,NoStart,0,High
jou-cmand1DR-20201113,jo,3,477,6,369,Go,Left,0,NoStart,0,High
jou-cmand1DR-20201113,jo,3,478,6,370,Stop,Right,333,NoStart,0,Low
jou-cmand1DR-20201113,jo,3,479,6,371,Go,Left,0,NoStart,0,High
jou-cmand1DR-20201113,jo,3,480,6,372,Stop,Left,333,NoStart,0,High
jou-cmand1DR-20201113,jo,3,481,6,373,Go,Right,0,NoStart,0,Low
jou-cmand1DR-20201113,jo,3,482,6,374,Stop,Left,333,NoStart,0,High
jou-cmand1DR-20201113,jo,3,483,6,375,Go,Right,0,NoStart,0,Low
jou-cmand1DR-20201113,jo,3,484,6,376,Stop,Left,333,NoStart,0,High
jou-cmand1DR-20201113,jo,3,485,6,377,Stop,Left,333,NoStart,0,High
jou-cmand1DR-20201113,jo,3,486,6,378,Go,Right,0,NoStart,0,Low
jou-cmand1DR-20201113,jo,3,487,6,379,Go,Left,0,NoStart,0,High
jou-cmand1DR-20201113,jo,3,488,6,380,Go,Right,0,NoStart,0,Low
jou-cmand1DR-20201113,jo,3,489,6,381,Stop,Left,333,NoStart,0,High
jou-cmand1DR-20201113,jo,3,490,6,382,Stop,Right,333,NoStart,0,Low
jou-cmand1DR-20201113,jo,3,491,6,383,Go,Left,0,NoStart,0,High
jou-cmand1DR-20201113,jo,3,492,6,384,Stop,Right,333,NoStart,0,Low
jou-cmand1DR-20201113,jo,3,493,6,385,Stop,Right,333,NoStart,0,Low
jou-cmand1DR-20201113,jo,3,494,6,386,Stop,Left,333,NoStart,0,High
jou-cmand1DR-20201113,jo,3,495,6,387,Stop,Left,333,NoStart,0,High
jou-cmand1DR-20201113,jo,3,496,6,388,Go,Right,0,NoStart,0,Low
jou-cmand1DR-20201113,jo,3,497,6,389,Go,Left,0,NoStart,0,High
jou-cmand1DR-20201113,jo,3,498,6,390,Stop,Left,333,NoStart,0,High
jou-cmand1DR-20201113,jo,3,499,6,391,Go,Right,0,NoStart,0,Low
jou-cmand1DR-20201113,jo,3,500,6,392,Stop,Right,333,NoStart,0,Low
jou-cmand1DR-20201113,jo,3,501,6,393,Go,Left,0,NoStart,0,High
jou-cmand1DR-20201113,jo,3,502,6,394,Go,Right,0,NoStart,0,Low
jou-cmand1DR-20201113,jo,3,503,6,395,Go,Left,0,NoStart,0,High
jou-cmand1DR-20201113,jo,3,504,6,396,Stop,Left,333,NoStart,0,High
jou-cmand1DR-20201113,jo,3,505,6,397,Stop,Left,333,NoStart,0,High
jou-cmand1DR-20201113,jo,3,506,6,398,Go,Right,0,NoStart,0,Low
jou-cmand1DR-20201113,jo,3,507,6,399,Stop,Left,333,NoStart,0,High
jou-cmand1DR-20201113,jo,3,508,6,400,Stop,Left,333,NoStart,0,High
jou-cmand1DR-20201113,jo,3,509,6,401,Go,Right,0,NoStart,0,Low
jou-cmand1DR-20201113,jo,3,510,6,402,Stop,Left,333,NoStart,0,High
jou-cmand1DR-20201113,jo,3,511,6,403,Stop,Right,333,NoStart,0,Low
jou-cmand1DR-20201113,jo,3,512,6,404,Stop,Right,333,NoStart,0,Low
jou-cmand1DR-20201113,jo,3,513,6,405,Stop,Right,333,NoStart,0,Low
jou-cmand1DR-20201113,jo,3,514,6,406,Stop,Right,333,NoStart,0,Low
jou-cmand1DR-20201113,jo,3,515,6,407,Go,Right,0,NoStart,0,Low
jou-cmand1DR-20201113,jo,3,516,6,408,Go,Right,0,NoStart,0,Low
jou-cmand1DR-20201113,jo,3,517,6,409,Go,Right,0,NoStart,0,Low
jou-cmand1DR-20201113,jo,3,518,6,410,Go,Left,0,NoStart,0,High
jou-cmand1DR-20201113,jo,3,519,6,411,Go,Left,0,NoStart,0,High
jou-cmand1DR-20201113,jo,3,520,6,412,Go,Left,0,NoStart,0,High
jou-cmand1DR-20201113,jo,3,521,6,413,Go,Left,0,NoStart,0,High
jou-cmand1DR-20201113,jo,3,522,6,414,Go,Left,0,NoStart,0,High
jou-cmand1DR-20201113,jo,3,523,6,415,Stop,Left,333,NoStart,0,High
jou-cmand1DR-20201113,jo,3,524,6,416,Stop,Left,333,NoStart,0,High
jou-cmand1DR-20201113,jo,3,525,6,417,Stop,Left,333,NoStart,0,High
jou-cmand1DR-20201113,jo,3,526,6,418,Go,Right,0,NoStart,0,Low
jou-cmand1DR-20201113,jo,3,527,6,419,Go,Right,0,NoStart,0,Low
jou-cmand1DR-20201113,jo,3,528,6,420,Go,Left,0,NoStart,0,High
jou-cmand1DR-20201113,jo,3,529,6,421,Go,Left,0,NoStart,0,High
jou-cmand1DR-20201113,jo,3,530,6,422,Go,Right,0,NoStart,0,Low
jou-cmand1DR-20201113,jo,3,531,6,423,Stop,Left,333,NoStart,0,High
jou-cmand1DR-20201113,jo,3,532,6,424,Go,Left,0,NoStart,0,High
jou-cmand1DR-20201113,jo,3,533,6,425,Go,Right,0,NoStart,0,Low
jou-cmand1DR-20201113,jo,3,534,6,426,Go,Right,0,NoStart,0,Low
jou-cmand1DR-20201113,jo,3,535,6,427,Stop,Left,333,NoStart,0,High
jou-cmand1DR-20201113,jo,3,536,6,428,Go,Left,0,NoStart,0,High
jou-cmand1DR-20201113,jo,3,537,6,429,Stop,Right,333,NoStart,0,Low
jou-cmand1DR-20201113,jo,3,538,6,430,Go,Left,0,NoStart,0,High
jou-cmand1DR-20201113,jo,3,539,6,431,Stop,Left,333,NoStart,0,High
jou-cmand1DR-20201113,jo,3,540,6,432,Go,Left,0,NoStart,0,High
jou-cmand1DR-20201113,jo,3,541,6,433,Stop,Right,333,NoStart,0,Low
jou-cmand1DR-20201113,jo,3,542,6,434,Go,Right,0,NoStart,0,Low
jou-cmand1DR-20201113,jo,3,543,6,435,Go,Right,0,NoStart,0,Low
jou-cmand1DR-20201113,jo,3,544,6,436,Go,Right,0,NoStart,0,Low
jou-cmand1DR-20201113,jo,3,545,6,437,Go,Left,0,NoStart,0,High
jou-cmand1DR-20201113,jo,3,546,6,438,Go,Right,0,NoStart,0,Low
jou-cmand1DR-20201113,jo,3,547,6,439,Go,Right,0,NoStart,0,Low
jou-cmand1DR-20201113,jo,3,548,6,440,Go,Left,0,NoStart,0,High
jou-cmand1DR-20201113,jo,3,549,6,441,Go,Right,0,NoStart,0,Low
jou-cmand1DR-20201113,jo,3,550,6,442,Stop,Left,333,NoStart,0,High
jou-cmand1DR-20201113,jo,3,551,6,443,Go,Left,0,NoStart,0,High
jou-cmand1DR-20201113,jo,3,552,6,444,Stop,Right,333,NoStart,0,Low
jou-cmand1DR-20201113,jo,3,553,6,445,Go,Left,0,NoStart,0,High
jou-cmand1DR-20201113,jo,3,554,6,446,Stop,Left,333,NoStart,0,High
jou-cmand1DR-20201113,jo,3,555,6,447,Go,Left,0,NoStart,0,High
jou-cmand1DR-20201113,jo,3,556,6,448,Go,Right,0,NoStart,0,Low
jou-cmand1DR-20201113,jo,3,557,6,449,Stop,Left,333,NoStart,0,High
jou-cmand1DR-20201113,jo,3,558,6,450,Go,Right,0,NoStart,0,Low
jou-cmand1DR-20201113,jo,3,559,6,451,Go,Right,0,NoStart,0,Low
jou-cmand1DR-20201113,jo,3,560,6,452,Go,Right,0,NoStart,0,Low
jou-cmand1DR-20201113,jo,3,561,6,453,Go,Left,0,NoStart,0,High
jou-cmand1DR-20201113,jo,3,562,6,454,Go,Right,0,NoStart,0,Low
jou-cmand1DR-20201113,jo,3,563,6,455,Stop,Left,333,NoStart,0,High
jou-cmand1DR-20201113,jo,3,564,6,456,Go,Right,0,NoStart,0,Low
jou-cmand1DR-20201113,jo,3,565,6,457,Go,Left,0,NoStart,0,High
jou-cmand1DR-20201113,jo,3,566,6,458,Stop,Left,333,NoStart,0,High
jou-cmand1DR-20201113,jo,3,567,6,459,Go,Left,0,NoStart,0,High
jou-cmand1DR-20201113,jo,3,568,6,460,Stop,Left,333,NoStart,0,High
jou-cmand1DR-20201113,jo,3,569,6,461,Go,Left,0,NoStart,0,High
jou-cmand1DR-20201113,jo,3,570,6,462,Go,Left,0,NoStart,0,High
jou-cmand1DR-20201113,jo,3,571,6,463,Go,Right,0,NoStart,0,Low
jou-cmand1DR-20201113,jo,3,572,6,464,Go,Right,0,NoStart,0,Low
jou-cmand1DR-20201113,jo,3,573,6,465,Go,Left,0,NoStart,0,High
jou-cmand1DR-20201113,jo,3,574,6,466,Stop,Right,333,NoStart,0,Low
jou-cmand1DR-20201113,jo,3,575,6,467,Go,Left,0,NoStart,0,High
jou-cmand1DR-20201113,jo,3,576,6,468,Stop,Right,333,NoStart,0,Low
jou-cmand1DR-20201113,jo,3,577,6,469,Go,Right,0,NoStart,0,Low
jou-cmand1DR-20201113,jo,3,578,6,470,Stop,Left,333,NoStart,0,High
jou-cmand1DR-20201113,jo,3,579,6,471,Go,Left,0,NoStart,0,High
jou-cmand1DR-20201113,jo,3,580,6,472,Go,Right,0,NoStart,0,Low
jou-cmand1DR-20201113,jo,3,581,6,473,Stop,Left,333,NoStart,0,High
jou-cmand1DR-20201113,jo,3,582,6,474,Go,Right,0,NoStart,0,Low
jou-cmand1DR-20201113,jo,3,583,6,475,Go,Left,0,NoStart,0,High
jou-cmand1DR-20201113,jo,3,584,6,476,Stop,Right,333,NoStart,0,Low
jou-cmand1DR-20201113,jo,3,585,6,477,Go,Right,0,NoStart,0,Low
jou-cmand1DR-20201113,jo,3,586,6,478,Stop,Left,333,NoStart,0,High
jou-cmand1DR-20201113,jo,3,587,6,479,Go,Left,0,NoStart,0,High
jou-cmand1DR-20201113,jo,3,588,6,480,Go,Right,0,NoStart,0,Low
jou-cmand1DR-20201113,jo,3,589,6,481,Stop,Left,333,NoStart,0,High
jou-cmand1DR-20201113,jo,3,590,6,482,Stop,Right,333,NoStart,0,Low
jou-cmand1DR-20201113,jo,3,591,6,483,Go,Left,0,NoStart,0,High
jou-cmand1DR-20201113,jo,3,592,6,484,Go,Right,0,NoStart,0,Low
jou-cmand1DR-20201113,jo,3,593,6,485,Go,Right,0,NoStart,0,Low
jou-cmand1DR-20201113,jo,3,594,6,486,Go,Right,0,NoStart,0,Low
jou-cmand1DR-20201113,jo,3,595,6,487,Go,Left,0,NoStart,0,High
jou-cmand1DR-20201113,jo,3,596,6,488,Go,Left,0,NoStart,0,High
jou-cmand1DR-20201113,jo,3,597,6,489,Go,Right,0,NoStart,0,Low
jou-cmand1DR-20201113,jo,3,598,6,490,Stop,Left,333,NoStart,0,High
jou-cmand1DR-20201113,jo,3,599,6,491,Stop,Right,333,NoStart,0,Low
jou-cmand1DR-20201113,jo,3,600,6,492,Stop,Right,333,NoStart,0,Low
jou-cmand1DR-20201113,jo,3,601,6,493,Go,Right,0,NoStart,0,Low
jou-cmand1DR-20201113,jo,3,602,6,494,Go,Left,0,NoStart,0,High
jou-cmand1DR-20201113,jo,3,603,6,495,Stop,Left,333,NoStart,0,High
jou-cmand1DR-20201113,jo,3,604,6,496,Stop,Left,333,NoStart,0,High
jou-cmand1DR-20201113,jo,3,605,6,497,Stop,Left,333,NoStart,0,High
jou-cmand1DR-20201113,jo,3,606,6,498,Go,Right,0,NoStart,0,Low
jou-cmand1DR-20201113,jo,3,607,6,499,Go,Left,0,NoStart,0,High
jou-cmand1DR-20201113,jo,3,608,6,500,Stop,Left,333,NoStart,0,High
jou-cmand1DR-20201113,jo,3,609,6,501,Go,Left,0,NoStart,0,High
jou-cmand1DR-20201113,jo,3,610,6,502,Go,Right,0,NoStart,0,Low
jou-cmand1DR-20201113,jo,3,611,6,503,Go,Left,0,NoStart,0,High
jou-cmand1DR-20201113,jo,3,612,6,504,Go,Right,0,NoStart,0,Low
jou-cmand1DR-20201113,jo,3,613,6,505,Go,Left,0,NoStart,0,High
jou-cmand1DR-20201113,jo,3,614,6,506,Go,Left,0,NoStart,0,High
jou-cmand1DR-20201113,jo,3,615,6,507,Go,Right,0,NoStart,0,Low
jou-cmand1DR-20201113,jo,3,616,6,508,Stop,Right,333,NoStart,0,Low
jou-cmand1DR-20201113,jo,3,617,6,509,Stop,Left,333,NoStart,0,High
jou-cmand1DR-20201113,jo,3,618,6,510,Go,Left,0,NoStart,0,High
jou-cmand1DR-20201113,jo,3,619,6,511,Go,Right,0,NoStart,0,Low
jou-cmand1DR-20201113,jo,3,620,6,512,Go,Left,0,NoStart,0,High
jou-cmand1DR-20201113,jo,3,621,6,513,Stop,Right,333,NoStart,0,Low
jou-cmand1DR-20201113,jo,3,622,6,514,Go,Right,0,NoStart,0,Low
jou-cmand1DR-20201113,jo,3,623,6,515,Stop,Left,333,NoStart,0,High
jou-cmand1DR-20201113,jo,3,624,6,516,Stop,Left,333,NoStart,0,High
jou-cmand1DR-20201113,jo,3,625,6,517,Stop,Left,333,NoStart,0,High
jou-cmand1DR-20201113,jo,3,626,6,518,Stop,Right,333,NoStart,0,Low
jou-cmand1DR-20201113,jo,3,627,6,519,Stop,Right,333,NoStart,0,Low
jou-cmand1DR-20201113,jo,3,628,6,520,Go,Right,0,NoStart,0,Low
jou-cmand1DR-20201113,jo,3,629,6,521,Go,Left,0,NoStart,0,High
jou-cmand1DR-20201113,jo,3,630,6,522,Stop,Right,333,NoStart,0,Low
jou-cmand1DR-20201113,jo,3,631,6,523,Go,Left,0,NoStart,0,High
jou-cmand1DR-20201113,jo,3,632,6,524,Go,Left,0,NoStart,0,High
jou-cmand1DR-20201113,jo,3,633,6,525,Go,Left,0,NoStart,0,High
jou-cmand1DR-20201113,jo,3,634,6,526,Stop,Left,333,NoStart,0,High
jou-cmand1DR-20201113,jo,3,635,6,527,Stop,Left,333,NoStart,0,High
jou-cmand1DR-20201113,jo,3,636,6,528,Go,Left,0,NoStart,0,High
jou-cmand1DR-20201113,jo,3,637,6,529,Go,Right,0,NoStart,0,Low
jou-cmand1DR-20201113,jo,3,638,6,530,Go,Left,0,NoStart,0,High
jou-cmand1DR-20201113,jo,3,639,6,531,Go,Left,0,NoStart,0,High
jou-cmand1DR-20201113,jo,3,640,6,532,Go,Right,0,NoStart,0,Low
jou-cmand1DR-20201113,jo,3,641,6,533,Stop,Right,333,NoStart,0,Low
jou-cmand1DR-20201113,jo,3,642,6,534,Go,Left,0,NoStart,0,High
jou-cmand1DR-20201113,jo,3,643,6,535,Stop,Right,333,NoStart,0,Low
jou-cmand1DR-20201113,jo,3,644,6,536,Go,Right,0,NoStart,0,Low
jou-cmand1DR-20201113,jo,3,645,6,537,Go,Left,0,NoStart,0,High
jou-cmand1DR-20201113,jo,3,646,6,538,Stop,Right,333,NoStart,0,Low
jou-cmand1DR-20201113,jo,3,647,6,539,Stop,Left,333,NoStart,0,High
jou-cmand1DR-20201113,jo,3,648,6,540,Go,Left,0,NoStart,0,High
jou-cmand1DR-20201113,jo,3,649,6,541,Go,Left,0,NoStart,0,High
jou-cmand1DR-20201113,jo,3,650,6,542,Go,Right,0,NoStart,0,Low
jou-cmand1DR-20201113,jo,3,651,6,543,Go,Right,0,NoStart,0,Low
jou-cmand1DR-20201113,jo,3,652,6,544,Go,Left,0,NoStart,0,High
jou-cmand1DR-20201113,jo,3,653,6,545,Go,Right,0,NoStart,0,Low
jou-cmand1DR-20201113,jo,3,654,6,546,Stop,Right,333,NoStart,0,Low
jou-cmand1DR-20201113,jo,3,655,6,547,Go,Left,0,NoStart,0,High
jou-cmand1DR-20201113,jo,3,656,6,548,Go,Right,0,NoStart,0,Low
jou-cmand1DR-20201113,jo,3,657,6,549,Go,Right,0,NoStart,0,Low
jou-cmand1DR-20201113,jo,3,658,6,550,Go,Right,0,NoStart,0,Low
jou-cmand1DR-20201113,jo,3,659,6,551,Go,Left,0,NoStart,0,High
jou-cmand1DR-20201113,jo,3,660,6,552,Go,Right,0,NoStart,0,Low
jou-cmand1DR-20201113,jo,3,661,6,553,Go,Right,0,NoStart,0,Low
jou-cmand1DR-20201113,jo,3,662,6,554,Go,Right,0,NoStart,0,Low
jou-cmand1DR-20201113,jo,3,663,6,555,Go,Right,0,NoStart,0,Low
jou-cmand1DR-20201113,jo,3,664,6,556,Go,Right,0,NoStart,0,Low
jou-cmand1DR-20201113,jo,3,665,6,557,Stop,Right,333,NoStart,0,Low
jou-cmand1DR-20201113,jo,3,666,6,558,Go,Left,0,NoStart,0,High
jou-cmand1DR-20201113,jo,3,667,6,559,Go,Right,0,NoStart,0,Low
jou-cmand1DR-20201113,jo,3,668,6,560,Go,Left,0,NoStart,0,High
jou-cmand1DR-20201113,jo,3,669,6,561,Go,Left,0,NoStart,0,High
jou-cmand1DR-20201113,jo,3,670,6,562,Go,Left,0,NoStart,0,High
jou-cmand1DR-20201113,jo,3,671,6,563,Go,Right,0,NoStart,0,Low
jou-cmand1DR-20201113,jo,3,672,6,564,Go,Left,0,NoStart,0,High
jou-cmand1DR-20201113,jo,3,673,6,565,Stop,Right,333,NoStart,0,Low
jou-cmand1DR-20201113,jo,3,674,6,566,Stop,Left,333,NoStart,0,High
jou-cmand1DR-20201113,jo,3,675,6,567,Go,Left,0,NoStart,0,High
jou-cmand1DR-20201113,jo,3,676,6,568,Stop,Left,333,NoStart,0,High
jou-cmand1DR-20201113,jo,3,677,6,569,Go,Right,0,NoStart,0,Low
jou-cmand1DR-20201113,jo,3,678,6,570,Stop,Right,333,NoStart,0,Low
jou-cmand1DR-20201113,jo,3,679,6,571,Go,Right,0,NoStart,0,Low
jou-cmand1DR-20201113,jo,3,680,6,572,Stop,Right,333,NoStart,0,Low
jou-cmand1DR-20201113,jo,3,681,6,573,Go,Right,0,NoStart,0,Low
jou-cmand1DR-20201113,jo,3,682,6,574,Go,Right,0,NoStart,0,Low
jou-cmand1DR-20201113,jo,3,683,6,575,Go,Right,0,NoStart,0,Low
jou-cmand1DR-20201113,jo,3,684,6,576,Go,Right,0,NoStart,0,Low
jou-cmand1DR-20201113,jo,3,685,6,577,Go,Left,0,NoStart,0,High
jou-cmand1DR-20201113,jo,3,686,6,578,Go,Right,0,NoStart,0,Low
jou-cmand1DR-20201113,jo,3,687,6,579,Go,Left,0,Left,292,High
jou-cmand1DR-20201113,jo,3,688,6,580,Stop,Left,333,Left,229,High
jou-cmand1DR-20201113,jo,3,689,6,581,Go,Right,0,NoStart,0,Low
jou-cmand1DR-20201113,jo,3,690,6,582,Stop,Left,267,NoStart,0,High
jou-cmand1DR-20201113,jo,3,691,6,583,Go,Right,0,NoStart,0,Low
jou-cmand1DR-20201113,jo,3,692,6,584,Stop,Right,200,NoResponse,0,Low
jou-cmand1DR-20201113,jo,3,693,6,585,Go,Right,0,NoStart,0,Low
jou-cmand1DR-20201113,jo,3,694,6,586,Stop,Left,400,Left,303,High
jou-cmand1DR-20201113,jo,3,695,6,587,Go,Right,0,Right,422,Low
jou-cmand1DR-20201113,jo,3,696,6,588,Go,Right,0,Right,525,Low
jou-cmand1DR-20201113,jo,3,697,6,589,Go,Right,0,NoStart,0,Low
jou-cmand1DR-20201113,jo,3,698,6,590,Go,Left,0,NoStart,0,High
jou-cmand1DR-20201113,jo,3,699,6,591,Stop,Left,333,NoStart,0,High
jou-cmand1DR-20201113,jo,3,700,6,592,Stop,Left,267,Left,336,High
jou-cmand1DR-20201113,jo,3,701,6,593,Stop,Left,50,NoResponse,0,High
jou-cmand1DR-20201113,jo,3,702,6,594,Go,Right,0,Right,476,Low
jou-cmand1DR-20201113,jo,3,703,6,595,Stop,Left,200,Left,280,High
jou-cmand1DR-20201113,jo,3,704,6,596,Go,Right,0,Right,531,Low
jou-cmand1DR-20201113,jo,3,705,6,597,Stop,Left,50,NoStart,0,High
jou-cmand1DR-20201113,jo,3,706,6,598,Go,Right,0,Right,678,Low
jou-cmand1DR-20201113,jo,3,707,6,599,Stop,Left,50,NoResponse,0,High
jou-cmand1DR-20201113,jo,3,708,7,1,Go,Left,0,NoStart,0,Low
jou-cmand1DR-20201113,jo,3,709,7,2,Stop,Right,133,NoResponse,0,High
jou-cmand1DR-20201113,jo,3,710,7,3,Go,Right,0,Right,450,High
jou-cmand1DR-20201113,jo,3,711,7,4,Go,Left,0,Left,477,Low
jou-cmand1DR-20201113,jo,3,712,7,5,Stop,Left,333,NoStart,0,Low
jou-cmand1DR-20201113,jo,3,713,7,6,Stop,Right,483,Right,434,High
jou-cmand1DR-20201113,jo,3,714,7,7,Go,Left,0,NoStart,0,Low
jou-cmand1DR-20201113,jo,3,715,7,8,Go,Right,0,NoStart,0,High
jou-cmand1DR-20201113,jo,3,716,7,9,Go,Left,0,Left,405,Low
jou-cmand1DR-20201113,jo,3,717,7,10,Go,Left,0,Left,349,Low
jou-cmand1DR-20201113,jo,3,718,7,11,Go,Right,0,NoStart,0,High
jou-cmand1DR-20201113,jo,3,719,7,12,Go,Right,0,Right,330,High
jou-cmand1DR-20201113,jo,3,720,7,13,Stop,Right,133,NoResponse,0,High
jou-cmand1DR-20201113,jo,3,721,7,14,Go,Left,0,Left,329,Low
jou-cmand1DR-20201113,jo,3,722,7,15,Stop,Left,200,NoResponse,0,Low
jou-cmand1DR-20201113,jo,3,723,7,16,Go,Left,0,Left,449,Low
jou-cmand1DR-20201113,jo,3,724,7,17,Stop,Left,133,NoResponse,0,Low
jou-cmand1DR-20201113,jo,3,725,7,18,Stop,Left,267,NoResponse,0,Low
jou-cmand1DR-20201113,jo,3,726,7,19,Stop,Left,483,Left,316,Low
jou-cmand1DR-20201113,jo,3,727,7,20,Stop,Left,267,Left,339,Low
jou-cmand1DR-20201113,jo,3,728,7,21,Go,Left,0,Left,360,Low
jou-cmand1DR-20201113,jo,3,729,7,22,Go,Right,0,Right,228,High
jou-cmand1DR-20201113,jo,3,730,7,23,Go,Right,0,Right,270,High
jou-cmand1DR-20201113,jo,3,731,7,24,Stop,Left,200,NoStart,0,Low
jou-cmand1DR-20201113,jo,3,732,7,25,Go,Left,0,Left,578,Low
jou-cmand1DR-20201113,jo,3,733,7,26,Go,Right,0,Right,259,High
jou-cmand1DR-20201113,jo,3,734,7,27,Stop,Right,200,NoResponse,0,High
jou-cmand1DR-20201113,jo,3,735,7,28,Go,Right,0,Right,315,High
jou-cmand1DR-20201113,jo,3,736,7,29,Go,Right,0,Right,255,High
jou-cmand1DR-20201113,jo,3,737,7,30,Go,Right,0,Right,294,High
jou-cmand1DR-20201113,jo,3,738,7,31,Go,Left,0,Left,332,Low
jou-cmand1DR-20201113,jo,3,739,7,32,Go,Right,0,Right,255,High
jou-cmand1DR-20201113,jo,3,740,7,33,Go,Left,0,Left,358,Low
jou-cmand1DR-20201113,jo,3,741,7,34,Stop,Right,267,Right,295,High
jou-cmand1DR-20201113,jo,3,742,7,35,Stop,Left,200,NoStart,0,Low
jou-cmand1DR-20201113,jo,3,743,7,36,Go,Right,0,NoStart,0,High
jou-cmand1DR-20201113,jo,3,744,7,37,Go,Right,0,Right,288,High
jou-cmand1DR-20201113,jo,3,745,8,1,Stop,Right,50,NoResponse,0,Low
jou-cmand1DR-20201113,jo,3,746,8,2,Go,Right,0,Right,318,Low
jou-cmand1DR-20201113,jo,3,747,8,3,Go,Right,0,Right,420,Low
jou-cmand1DR-20201113,jo,3,748,8,4,Go,Left,0,Left,242,High
jou-cmand1DR-20201113,jo,3,749,8,5,Go,Left,0,Left,246,High
jou-cmand1DR-20201113,jo,3,750,8,6,Go,Right,0,NoStart,0,Low
jou-cmand1DR-20201113,jo,3,751,8,7,Go,Right,0,Right,570,Low
jou-cmand1DR-20201113,jo,3,752,8,8,Stop,Right,200,NoResponse,0,Low
jou-cmand1DR-20201113,jo,3,753,8,9,Stop,Left,333,Left,281,High
jou-cmand1DR-20201113,jo,3,754,8,10,Go,Right,0,NoStart,0,Low
jou-cmand1DR-20201113,jo,3,755,8,11,Go,Right,0,Right,545,Low
jou-cmand1DR-20201113,jo,3,756,8,12,Go,Left,0,Left,279,High
jou-cmand1DR-20201113,jo,3,757,8,13,Go,Left,0,Left,277,High
jou-cmand1DR-20201113,jo,3,758,8,14,Go,Right,0,Right,501,Low
jou-cmand1DR-20201113,jo,3,759,8,15,Stop,Left,200,Left,276,High
jou-cmand1DR-20201113,jo,3,760,8,16,Go,Left,0,Left,262,High
jou-cmand1DR-20201113,jo,3,761,8,17,Go,Left,0,Left,258,High
jou-cmand1DR-20201113,jo,3,762,8,18,Stop,Right,200,NoResponse,0,Low
jou-cmand1DR-20201113,jo,3,763,8,19,Go,Left,0,Left,263,High
jou-cmand1DR-20201113,jo,3,764,8,20,Stop,Right,400,Right,317,Low
jou-cmand1DR-20201113,jo,3,765,8,21,Go,Left,0,Left,240,High
jou-cmand1DR-20201113,jo,3,766,8,22,Go,Left,0,Left,256,High
jou-cmand1DR-20201113,jo,3,767,8,23,Go,Right,0,Right,359,Low
jou-cmand1DR-20201113,jo,3,768,8,24,Go,Left,0,Left,282,High
jou-cmand1DR-20201113,jo,3,769,8,25,Stop,Left,267,NoStart,0,High
jou-cmand1DR-20201113,jo,3,770,8,26,Stop,Right,200,NoStart,0,Low
jou-cmand1DR-20201113,jo,3,771,8,27,Go,Left,0,Left,248,High
jou-cmand1DR-20201113,jo,3,772,8,28,Go,Left,0,Left,317,High
jou-cmand1DR-20201113,jo,3,773,8,29,Go,Right,0,Right,521,Low
jou-cmand1DR-20201113,jo,3,774,8,30,Go,Left,0,Left,253,High
jou-cmand1DR-20201113,jo,3,775,8,31,Go,Left,0,Left,260,High
jou-cmand1DR-20201113,jo,3,776,8,32,Stop,Left,50,NoStart,0,High
jou-cmand1DR-20201113,jo,3,777,8,33,Go,Right,0,Right,354,Low
jou-cmand1DR-20201113,jo,3,778,8,34,Stop,Right,50,NoResponse,0,Low
jou-cmand1DR-20201113,jo,3,779,8,35,Go,Left,0,Left,250,High
jou-cmand1DR-20201113,jo,3,780,8,36,Go,Left,0,Left,265,High
jou-cmand1DR-20201113,jo,3,781,8,37,Go,Right,0,Right,357,Low
jou-cmand1DR-20201113,jo,3,782,8,38,Stop,Left,133,Left,222,High
jou-cmand1DR-20201113,jo,3,783,8,39,Stop,Right,50,NoResponse,0,Low
jou-cmand1DR-20201113,jo,3,784,8,40,Go,Right,0,Right,389,Low
jou-cmand1DR-20201113,jo,3,785,8,41,Go,Right,0,Right,401,Low
jou-cmand1DR-20201113,jo,3,786,9,1,Go,Right,0,Right,317,High
jou-cmand1DR-20201113,jo,3,787,9,2,Stop,Left,267,NoStart,0,Low
jou-cmand1DR-20201113,jo,3,788,9,3,Stop,Left,400,Left,424,Low
jou-cmand1DR-20201113,jo,3,789,9,4,Go,Left,0,Left,489,Low
jou-cmand1DR-20201113,jo,3,790,9,5,Stop,Right,200,NoStart,0,High
jou-cmand1DR-20201113,jo,3,791,9,6,Go,Left,0,Left,648,Low
jou-cmand1DR-20201113,jo,3,792,9,7,Go,Right,0,Right,251,High
jou-cmand1DR-20201113,jo,3,793,9,8,Go,Right,0,Right,267,High
jou-cmand1DR-20201113,jo,3,794,9,9,Stop,Right,50,NoStart,0,High
jou-cmand1DR-20201113,jo,3,795,9,10,Stop,Left,50,NoResponse,0,Low
jou-cmand1DR-20201113,jo,3,796,9,11,Go,Left,0,Left,377,Low
jou-cmand1DR-20201113,jo,3,797,9,12,Go,Right,0,Right,237,High
jou-cmand1DR-20201113,jo,3,798,9,13,Go,Right,0,Right,246,High
jou-cmand1DR-20201113,jo,3,799,9,14,Go,Right,0,NoStart,0,High
jou-cmand1DR-20201113,jo,3,800,9,15,Stop,Left,267,Left,328,Low
jou-cmand1DR-20201113,jo,3,801,9,16,Stop,Left,133,NoResponse,0,Low
jou-cmand1DR-20201113,jo,3,802,9,17,Go,Right,0,Right,238,High
jou-cmand1DR-20201113,jo,3,803,9,18,Stop,Right,267,Right,261,High
jou-cmand1DR-20201113,jo,3,804,9,19,Go,Right,0,Right,269,High
jou-cmand1DR-20201113,jo,3,805,9,20,Go,Left,0,NoStart,0,Low
jou-cmand1DR-20201113,jo,3,806,9,21,Stop,Right,200,NoStart,0,High
jou-cmand1DR-20201113,jo,3,807,9,22,Go,Right,0,NoStart,0,High
jou-cmand1DR-20201113,jo,3,808,9,23,Stop,Right,200,NoStart,0,High
jou-cmand1DR-20201113,jo,3,809,9,24,Go,Right,0,Right,258,High
jou-cmand1DR-20201113,jo,3,810,9,25,Go,Right,0,Right,431,High
jou-cmand1DR-20201113,jo,3,811,10,1,Stop,Left,200,NoResponse,0,High
jou-cmand1DR-20201113,jo,3,812,10,2,Go,Left,0,Left,352,High
jou-cmand1DR-20201113,jo,3,813,10,3,Go,Left,0,Left,247,High
jou-cmand1DR-20201113,jo,3,814,10,4,Go,Right,0,Right,314,Low
jou-cmand1DR-20201113,jo,3,815,10,5,Stop,Right,400,Right,468,Low
jou-cmand1DR-20201113,jo,3,816,10,6,Stop,Right,333,NoStart,0,Low
jou-cmand1DR-20201113,jo,3,817,10,7,Go,Left,0,Left,247,High
jou-cmand1DR-20201113,jo,3,818,10,8,Stop,Right,333,Right,307,Low
jou-cmand1DR-20201113,jo,3,819,10,9,Go,Left,0,Left,249,High
jou-cmand1DR-20201113,jo,3,820,10,10,Go,Left,0,Left,252,High
jou-cmand1DR-20201113,jo,3,821,10,11,Go,Left,0,Left,263,High
jou-cmand1DR-20201113,jo,3,822,10,12,Go,Left,0,Left,268,High
jou-cmand1DR-20201113,jo,3,823,10,13,Go,Right,0,Right,404,Low
jou-cmand1DR-20201113,jo,3,824,10,14,Go,Left,0,Left,273,High
jou-cmand1DR-20201113,jo,3,825,10,15,Go,Right,0,Right,355,Low
jou-cmand1DR-20201113,jo,3,826,10,16,Stop,Right,200,Right,281,Low
jou-cmand1DR-20201113,jo,3,827,10,17,Go,Left,0,Left,239,High
jou-cmand1DR-20201113,jo,3,828,10,18,Stop,Left,200,Left,239,High
jou-cmand1DR-20201113,jo,3,829,10,19,Go,Left,0,Left,227,High
jou-cmand1DR-20201113,jo,3,830,10,20,Stop,Left,50,NoResponse,0,High
jou-cmand1DR-20201113,jo,3,831,10,21,Stop,Left,267,Left,236,High
jou-cmand1DR-20201113,jo,3,832,10,22,Stop,Right,133,NoStart,0,Low
jou-cmand1DR-20201113,jo,3,833,10,23,Go,Right,0,Right,631,Low
jou-cmand1DR-20201113,jo,3,834,10,24,Go,Left,0,Left,283,High
jou-cmand1DR-20201113,jo,3,835,11,1,Go,Right,0,Right,396,High
jou-cmand1DR-20201113,jo,3,836,11,2,Stop,Right,133,NoResponse,0,High
jou-cmand1DR-20201113,jo,3,837,11,3,Go,Left,0,Left,368,Low
jou-cmand1DR-20201113,jo,3,838,11,4,Go,Right,0,Right,301,High
jou-cmand1DR-20201113,jo,3,839,11,5,Go,Left,0,Left,341,Low
jou-cmand1DR-20201113,jo,3,840,11,6,Stop,Left,200,NoResponse,0,Low
jou-cmand1DR-20201113,jo,3,841,11,7,Go,Left,0,Left,413,Low
jou-cmand1DR-20201113,jo,3,842,11,8,Go,Right,0,Right,262,High
jou-cmand1DR-20201113,jo,3,843,11,9,Go,Right,0,Right,376,High
jou-cmand1DR-20201113,jo,3,844,11,10,Go,Left,0,Left,405,Low
jou-cmand1DR-20201113,jo,3,845,11,11,Stop,Right,400,Right,264,High
jou-cmand1DR-20201113,jo,3,846,11,12,Go,Right,0,Right,237,High
jou-cmand1DR-20201113,jo,3,847,11,13,Go,Right,0,Right,274,High
jou-cmand1DR-20201113,jo,3,848,11,14,Go,Left,0,Left,384,Low
jou-cmand1DR-20201113,jo,3,849,11,15,Go,Left,0,Left,345,Low
jou-cmand1DR-20201113,jo,3,850,11,16,Stop,Left,200,NoResponse,0,Low
jou-cmand1DR-20201113,jo,3,851,11,17,Go,Right,0,Right,273,High
jou-cmand1DR-20201113,jo,3,852,11,18,Go,Right,0,Right,225,High
jou-cmand1DR-20201113,jo,3,853,11,19,Stop,Right,267,Right,244,High
jou-cmand1DR-20201113,jo,3,854,11,20,Go,Left,0,Left,436,Low
jou-cmand1DR-20201113,jo,3,855,11,21,Stop,Left,133,NoResponse,0,Low
jou-cmand1DR-20201113,jo,3,856,11,22,Stop,Left,267,NoResponse,0,Low
jou-cmand1DR-20201113,jo,3,857,11,23,Go,Left,0,Left,299,Low
jou-cmand1DR-20201113,jo,3,858,11,24,Stop,Right,400,Right,236,High
jou-cmand1DR-20201113,jo,3,859,11,25,Go,Left,0,Left,246,Low
jou-cmand1DR-20201113,jo,3,860,11,26,Go,Right,0,Right,382,High
jou-cmand1DR-20201113,jo,3,861,11,27,Go,Left,0,Left,361,Low
jou-cmand1DR-20201113,jo,3,862,11,28,Go,Right,0,Right,267,High
jou-cmand1DR-20201113,jo,3,863,11,29,Stop,Right,333,Right,229,High
jou-cmand1DR-20201113,jo,3,864,11,30,Stop,Right,133,NoResponse,0,High
jou-cmand1DR-20201113,jo,3,865,11,31,Go,Left,0,Left,403,Low
jou-cmand1DR-20201113,jo,3,866,11,32,Go,Right,0,Right,306,High
jou-cmand1DR-20201113,jo,3,867,11,33,Go,Right,0,Right,322,High
jou-cmand1DR-20201113,jo,3,868,11,34,Stop,Left,267,NoStart,0,Low
jou-cmand1DR-20201113,jo,3,869,11,35,Go,Left,0,Left,366,Low
jou-cmand1DR-20201113,jo,3,870,11,36,Go,Left,0,Left,328,Low
jou-cmand1DR-20201113,jo,3,871,12,1,Stop,Right,267,Right,240,Low
jou-cmand1DR-20201113,jo,3,872,12,2,Stop,Left,133,NoResponse,0,High
jou-cmand1DR-20201113,jo,3,873,12,3,Go,Right,0,Right,257,Low
jou-cmand1DR-20201113,jo,3,874,12,4,Go,Right,0,Right,273,Low
jou-cmand1DR-20201113,jo,3,875,12,5,Go,Right,0,Right,528,Low
jou-cmand1DR-20201113,jo,3,876,12,6,Stop,Right,200,NoResponse,0,Low
jou-cmand1DR-20201113,jo,3,877,12,7,Stop,Left,400,Left,238,High
jou-cmand1DR-20201113,jo,3,878,12,8,Go,Left,0,Left,259,High
jou-cmand1DR-20201113,jo,3,879,12,9,Go,Left,0,Left,262,High
jou-cmand1DR-20201113,jo,3,880,12,10,Stop,Left,267,Left,287,High
jou-cmand1DR-20201113,jo,3,881,12,11,Stop,Left,133,NoResponse,0,High
jou-cmand1DR-20201113,jo,3,882,12,12,Go,Left,0,Left,246,High
jou-cmand1DR-20201113,jo,3,883,12,13,Stop,Right,200,NoResponse,0,Low
jou-cmand1DR-20201113,jo,3,884,12,14,Go,Right,0,Right,507,Low
jou-cmand1DR-20201113,jo,3,885,12,15,Go,Right,0,NoStart,0,Low
jou-cmand1DR-20201113,jo,3,886,12,16,Go,Right,0,NoStart,0,Low
jou-cmand1DR-20201113,jo,3,887,12,17,Stop,Right,400,Right,484,Low
jou-cmand1DR-20201113,jo,3,888,12,18,Go,Right,0,Right,519,Low
jou-cmand1DR-20201113,jo,3,889,12,19,Stop,Left,267,Left,225,High
jou-cmand1DR-20201113,jo,3,890,12,20,Go,Left,0,Left,234,High
jou-cmand1DR-20201113,jo,3,891,12,21,Go,Left,0,NoStart,0,High
jou-cmand1DR-20201113,jo,3,892,12,22,Stop,Right,50,NoStart,0,Low
jou-cmand1DR-20201113,jo,3,893,12,23,Go,Left,0,Left,292,High
jou-cmand1DR-20201113,jo,3,894,12,24,Go,Left,0,Left,248,High
jou-cmand1DR-20201113,jo,3,895,12,25,Go,Right,0,Right,314,Low
jou-cmand1DR-20201113,jo,3,896,12,26,Go,Left,0,Left,238,High
jou-cmand1DR-20201113,jo,3,897,12,27,Go,Right,0,Right,431,Low
jou-cmand1DR-20201113,jo,3,898,13,1,Stop,Left,50,NoStart,0,Low
jou-cmand1DR-20201113,jo,3,899,13,2,Stop,Right,50,NoStart,0,High
jou-cmand1DR-20201113,jo,3,900,13,3,Go,Left,0,Left,249,Low
jou-cmand1DR-20201113,jo,3,901,13,4,Go,Left,0,Left,299,Low
jou-cmand1DR-20201113,jo,3,902,13,5,Go,Left,0,Left,467,Low
jou-cmand1DR-20201113,jo,3,903,13,6,Stop,Right,50,NoResponse,0,High
jou-cmand1DR-20201113,jo,3,904,13,7,Go,Left,0,Left,367,Low
jou-cmand1DR-20201113,jo,3,905,13,8,Go,Right,0,Right,264,High
jou-cmand1DR-20201113,jo,3,906,13,9,Go,Right,0,Right,368,High
jou-cmand1DR-20201113,jo,3,907,13,10,Stop,Left,267,NoResponse,0,Low
jou-cmand1DR-20201113,jo,3,908,13,11,Go,Right,0,Right,285,High
jou-cmand1DR-20201113,jo,3,909,13,12,Stop,Left,333,NoStart,0,Low
jou-cmand1DR-20201113,jo,3,910,13,13,Go,Right,0,Right,256,High
jou-cmand1DR-20201113,jo,3,911,13,14,Go,Right,0,Right,288,High
jou-cmand1DR-20201113,jo,3,912,13,15,Go,Right,0,Right,315,High
jou-cmand1DR-20201113,jo,3,913,13,16,Stop,Left,483,Left,329,Low
jou-cmand1DR-20201113,jo,3,914,13,17,Stop,Right,267,Right,231,High
jou-cmand1DR-20201113,jo,3,915,13,18,Go,Right,0,Right,328,High
jou-cmand1DR-20201113,jo,3,916,13,19,Go,Right,0,Right,270,High
jou-cmand1DR-20201113,jo,3,917,13,20,Go,Right,0,Right,251,High
jou-cmand1DR-20201113,jo,3,918,14,1,Stop,Left,133,NoResponse,0,High
jou-cmand1DR-20201113,jo,3,919,14,2,Go,Right,0,Right,312,Low
jou-cmand1DR-20201113,jo,3,920,14,3,Go,Right,0,Right,476,Low
jou-cmand1DR-20201113,jo,3,921,14,4,Go,Left,0,Left,258,High
jou-cmand1DR-20201113,jo,3,922,14,5,Go,Left,0,Left,355,High
jou-cmand1DR-20201113,jo,3,923,14,6,Stop,Left,200,NoStart,0,High
jou-cmand1DR-20201113,jo,3,924,14,7,Go,Right,0,Right,547,Low
jou-cmand1DR-20201113,jo,3,925,14,8,Go,Left,0,Left,250,High
jou-cmand1DR-20201113,jo,3,926,14,9,Go,Right,0,Right,320,Low
jou-cmand1DR-20201113,jo,3,927,14,10,Go,Right,0,Right,580,Low
jou-cmand1DR-20201113,jo,3,928,14,11,Go,Left,0,Left,229,High
jou-cmand1DR-20201113,jo,3,929,14,12,Go,Right,0,Right,283,Low
jou-cmand1DR-20201113,jo,3,930,14,13,Go,Left,0,Left,231,High
jou-cmand1DR-20201113,jo,3,931,14,14,Go,Left,0,Left,278,High
jou-cmand1DR-20201113,jo,3,932,14,15,Stop,Left,267,Left,270,High
jou-cmand1DR-20201113,jo,3,933,14,16,Go,Right,0,Right,364,Low
jou-cmand1DR-20201113,jo,3,934,14,17,Stop,Right,50,NoStart,0,Low
jou-cmand1DR-20201113,jo,3,935,14,18,Go,Right,0,Right,395,Low
jou-cmand1DR-20201113,jo,3,936,14,19,Go,Left,0,Left,271,High
jou-cmand1DR-20201113,jo,3,937,14,20,Stop,Left,50,Left,267,High
jou-cmand1DR-20201113,jo,3,938,14,21,Stop,Right,50,NoResponse,0,Low
jou-cmand1DR-20201113,jo,3,939,14,22,Stop,Right,133,NoResponse,0,Low
jou-cmand1DR-20201113,jo,3,940,14,23,Go,Right,0,Right,366,Low
jou-cmand1DR-20201113,jo,3,941,14,24,Go,Right,0,NoStart,0,Low
jou-cmand1DR-20201113,jo,3,942,14,25,Go,Right,0,NoStart,0,Low
jou-cmand1DR-20201113,jo,3,943,14,26,Stop,Left,267,NoStart,0,High
jou-cmand1DR-20201113,jo,3,944,14,27,Stop,Left,333,Left,216,High
jou-cmand1DR-20201113,jo,3,945,14,28,Go,Right,0,Right,468,Low
jou-cmand1DR-20201113,jo,3,946,14,29,Go,Left,0,Left,251,High
jou-cmand1DR-20201113,jo,3,947,14,30,Go,Left,0,Left,197,High
jou-cmand1DR-20201113,jo,3,948,15,1,Stop,Right,267,NoStart,0,High
jou-cmand1DR-20201113,jo,3,949,15,2,Go,Left,0,Left,251,Low
jou-cmand1DR-20201113,jo,3,950,15,3,Go,Right,0,Right,335,High
jou-cmand1DR-20201113,jo,3,951,15,4,Go,Right,0,Right,253,High
jou-cmand1DR-20201113,jo,3,952,15,5,Go,Right,0,Right,283,High
jou-cmand1DR-20201113,jo,3,953,15,6,Go,Right,0,Right,244,High
jou-cmand1DR-20201113,jo,3,954,15,7,Go,Left,0,Left,275,Low
jou-cmand1DR-20201113,jo,3,955,15,8,Go,Right,0,Right,226,High
jou-cmand1DR-20201113,jo,3,956,15,9,Stop,Left,267,NoStart,0,Low
jou-cmand1DR-20201113,jo,3,957,15,10,Go,Left,0,Left,402,Low
jou-cmand1DR-20201113,jo,3,958,15,11,Stop,Right,267,Right,335,High
jou-cmand1DR-20201113,jo,3,959,15,12,Stop,Left,200,NoStart,0,Low
jou-cmand1DR-20201113,jo,3,960,15,13,Go,Right,0,Right,230,High
jou-cmand1DR-20201113,jo,3,961,15,14,Go,Left,0,Left,413,Low
jou-cmand1DR-20201113,jo,3,962,15,15,Stop,Left,50,NoStart,0,Low
jou-cmand1DR-20201113,jo,3,963,15,16,Stop,Left,50,NoStart,0,Low
jou-cmand1DR-20201113,jo,3,964,15,17,Go,Right,0,Right,238,High
jou-cmand1DR-20201113,jo,3,965,15,18,Go,Left,0,Left,351,Low
jou-cmand1DR-20201113,jo,3,966,15,19,Go,Left,0,Left,508,Low
jou-cmand1DR-20201113,jo,3,967,15,20,Go,Left,0,NoStart,0,Low
jou-cmand1DR-20201113,jo,3,968,15,21,Stop,Left,333,Left,348,Low
jou-cmand1DR-20201113,jo,3,969,15,22,Stop,Right,133,Right,272,High
jou-cmand1DR-20201113,jo,3,970,15,23,Go,Left,0,Left,441,Low
jou-cmand1DR-20201113,jo,3,971,15,24,Go,Left,0,NoStart,0,Low
jou-cmand1DR-20201113,jo,3,972,15,25,Go,Left,0,NoStart,0,Low
jou-cmand1DR-20201113,jo,3,973,15,26,Go,Left,0,NoStart,0,Low
jou-cmand1DR-20201113,jo,3,974,15,27,Go,Right,0,Right,281,High
jou-cmand1DR-20201113,jo,3,975,16,1,Go,Left,0,Left,297,High
jou-cmand1DR-20201113,jo,3,976,16,2,Stop,Left,50,NoStart,0,High
jou-cmand1DR-20201113,jo,3,977,16,3,Go,Right,0,Right,298,Low
jou-cmand1DR-20201113,jo,3,978,16,4,Go,Left,0,Left,252,High
jou-cmand1DR-20201113,jo,3,979,16,5,Go,Left,0,NoStart,0,High
jou-cmand1DR-20201113,jo,3,980,16,6,Go,Right,0,Right,498,Low
jou-cmand1DR-20201113,jo,3,981,16,7,Stop,Left,50,NoStart,0,High
jou-cmand1DR-20201113,jo,3,982,16,8,Go,Right,0,Right,384,Low
jou-cmand1DR-20201113,jo,3,983,16,9,Go,Left,0,Left,214,High
jou-cmand1DR-20201113,jo,3,984,16,10,Stop,Right,50,NoStart,0,Low
jou-cmand1DR-20201113,jo,3,985,16,11,Stop,Left,50,NoStart,0,High
jou-cmand1DR-20201113,jo,3,986,16,12,Go,Right,0,NoStart,0,Low
jou-cmand1DR-20201113,jo,3,987,16,13,Stop,Left,50,NoStart,0,High
jou-cmand1DR-20201113,jo,3,988,16,14,Go,Right,0,NoStart,0,Low
jou-cmand1DR-20201113,jo,3,989,16,15,Go,Right,0,Right,311,Low
jou-cmand1DR-20201113,jo,3,990,16,16,Go,Left,0,Left,257,High
jou-cmand1DR-20201113,jo,3,991,16,17,Go,Left,0,NoStart,0,High
jou-cmand1DR-20201113,jo,3,992,16,18,Stop,Left,50,NoStart,0,High
jou-cmand1DR-20201113,jo,3,993,16,19,Stop,Right,50,NoStart,0,Low
jou-cmand1DR-20201113,jo,3,994,16,20,Stop,Left,50,NoResponse,0,High
jou-cmand1DR-20201113,jo,3,995,16,21,Stop,Right,200,NoResponse,0,Low
jou-cmand1DR-20201113,jo,3,996,16,22,Stop,Right,333,NoStart,0,Low
jou-cmand1DR-20201113,jo,3,997,16,23,Go,Left,0,NoStart,0,High
jou-cmand1DR-20201113,jo,3,998,16,24,Stop,Right,333,NoStart,0,Low
jou-cmand1DR-20201113,jo,3,999,16,25,Stop,Right,333,Right,319,Low
jou-cmand1DR-20201113,jo,3,1000,16,26,Stop,Right,133,NoStart,0,Low
jou-cmand1DR-20201113,jo,3,1001,16,27,Stop,Right,133,NoResponse,0,Low
jou-cmand1DR-20201113,jo,3,1002,16,28,Stop,Right,267,NoResponse,0,Low
jou-cmand1DR-20201113,jo,3,1003,16,29,Go,Left,0,Left,290,High
jou-cmand1DR-20201113,jo,3,1004,16,30,Go,Right,0,NoStart,0,Low
jou-cmand1DR-20201113,jo,3,1005,16,31,Go,Right,0,NoStart,0,Low
jou-cmand1DR-20201113,jo,3,1006,16,32,Go,Right,0,Right,516,Low
jou-cmand1DR-20201113,jo,3,1007,16,33,Stop,Left,483,Left,270,High
jou-cmand1DR-20201113,jo,3,1008,16,34,Stop,Right,267,Right,272,Low
jou-cmand1DR-20201113,jo,3,1009,16,35,Stop,Left,133,NoResponse,0,High
jou-cmand1DR-20201113,jo,3,1010,16,36,Stop,Left,267,Left,253,High
jou-cmand1DR-20201113,jo,3,1011,16,37,Stop,Right,200,NoResponse,0,Low
jou-cmand1DR-20201113,jo,3,1012,16,38,Go,Right,0,Right,367,Low
jou-cmand1DR-20201113,jo,3,1013,17,1,Go,Left,0,Left,271,Low
jou-cmand1DR-20201113,jo,3,1014,17,2,Go,Right,0,Right,518,High
jou-cmand1DR-20201113,jo,3,1015,17,3,Stop,Left,400,Left,451,Low
jou-cmand1DR-20201113,jo,3,1016,17,4,Stop,Left,200,NoResponse,0,Low
jou-cmand1DR-20201113,jo,3,1017,17,5,Go,Left,0,Left,490,Low
jou-cmand1DR-20201113,jo,3,1018,17,6,Go,Left,0,Left,440,Low
jou-cmand1DR-20201113,jo,3,1019,17,7,Go,Left,0,Left,405,Low
jou-cmand1DR-20201113,jo,3,1020,17,8,Stop,Right,333,Right,247,High
jou-cmand1DR-20201113,jo,3,1021,17,9,Go,Right,0,Right,308,High
jou-cmand1DR-20201113,jo,3,1022,17,10,Go,Left,0,NoStart,0,Low
jou-cmand1DR-20201113,jo,3,1023,17,11,Stop,Left,333,NoResponse,0,Low
jou-cmand1DR-20201113,jo,3,1024,17,12,Stop,Right,483,Right,266,High
jou-cmand1DR-20201113,jo,3,1025,17,13,Go,Right,0,Right,315,High
jou-cmand1DR-20201113,jo,3,1026,17,14,Stop,Right,400,Right,286,High
jou-cmand1DR-20201113,jo,3,1027,17,15,Stop,Right,333,Right,283,High
jou-cmand1DR-20201113,jo,3,1028,17,16,Stop,Right,267,Right,308,High
jou-cmand1DR-20201113,jo,3,1029,17,17,Stop,Right,50,NoResponse,0,High
jou-cmand1DR-20201113,jo,3,1030,17,18,Stop,Right,200,NoResponse,0,High
jou-cmand1DR-20201113,jo,3,1031,17,19,Go,Right,0,Right,298,High
jou-cmand1DR-20201113,jo,3,1032,17,20,Go,Right,0,Right,292,High
jou-cmand1DR-20201113,jo,3,1033,17,21,Stop,Left,400,Left,439,Low
jou-cmand1DR-20201113,jo,3,1034,17,22,Stop,Left,267,NoResponse,0,Low
jou-cmand1DR-20201113,jo,3,1035,17,23,Go,Right,0,Right,266,High
jou-cmand1DR-20201113,jo,3,1036,17,24,Go,Left,0,Left,306,Low
jou-cmand1DR-20201113,jo,3,1037,17,25,Go,Right,0,Right,228,High
jou-cmand1DR-20201113,jo,3,1038,18,1,Stop,Right,400,Right,278,Low
jou-cmand1DR-20201113,jo,3,1039,18,2,Stop,Right,333,Right,296,Low
jou-cmand1DR-20201113,jo,3,1040,18,3,Go,Left,0,Left,458,High
jou-cmand1DR-20201113,jo,3,1041,18,4,Stop,Right,200,NoStart,0,Low
jou-cmand1DR-20201113,jo,3,1042,18,5,Stop,Right,200,NoStart,0,Low
jou-cmand1DR-20201113,jo,3,1043,18,6,Stop,Right,200,NoResponse,0,Low
jou-cmand1DR-20201113,jo,3,1044,18,7,Stop,Left,333,Left,350,High
jou-cmand1DR-20201113,jo,3,1045,18,8,Stop,Left,267,NoStart,0,High
jou-cmand1DR-20201113,jo,3,1046,18,9,Stop,Right,267,NoStart,0,Low
jou-cmand1DR-20201113,jo,3,1047,18,10,Go,Right,0,NoStart,0,Low
jou-cmand1DR-20201113,jo,3,1048,18,11,Stop,Right,267,NoStart,0,Low
jou-cmand1DR-20201113,jo,3,1049,18,12,Go,Left,0,NoStart,0,High
jou-cmand1DR-20201113,jo,3,1050,18,13,Go,Left,0,NoStart,0,High
jou-cmand1DR-20201113,jo,3,1051,18,14,Go,Right,0,NoStart,0,Low
jou-cmand1DR-20201113,jo,3,1052,18,15,Go,Right,0,NoStart,0,Low
jou-cmand1DR-20201113,jo,3,1053,18,16,Stop,Left,267,NoStart,0,High
jou-cmand1DR-20201113,jo,3,1054,18,17,Go,Left,0,NoStart,0,High
jou-cmand1DR-20201113,jo,3,1055,18,18,Go,Left,0,Left,367,High
jou-cmand1DR-20201113,jo,3,1056,18,19,Go,Left,0,NoStart,0,High
jou-cmand1DR-20201113,jo,3,1057,18,20,Go,Left,0,NoStart,0,High
jou-cmand1DR-20201113,jo,3,1058,18,21,Go,Right,0,NoStart,0,Low
jou-cmand1DR-20201113,jo,3,1059,18,22,Go,Right,0,NoStart,0,Low
jou-cmand1DR-20201113,jo,3,1060,18,23,Stop,Left,267,NoStart,0,High
jou-cmand1DR-20201113,jo,3,1061,18,24,Go,Left,0,NoStart,0,High
jou-cmand1DR-20201113,jo,3,1062,18,25,Stop,Right,267,NoStart,0,Low
jou-cmand1DR-20201113,jo,3,1063,18,26,Stop,Left,267,NoStart,0,High
jou-cmand1DR-20201113,jo,3,1064,18,27,Go,Left,0,NoStart,0,High
jou-cmand1DR-20201113,jo,3,1065,18,28,Go,Right,0,NoStart,0,Low
jou-cmand1DR-20201113,jo,3,1066,18,29,Go,Left,0,NoStart,0,High
jou-cmand1DR-20201113,jo,3,1067,18,30,Go,Left,0,NoStart,0,High
jou-cmand1DR-20201113,jo,3,1068,18,31,Stop,Left,267,NoResponse,0,High
jou-cmand1DR-20201113,jo,3,1069,18,32,Go,Right,0,NoStart,0,Low
jou-cmand1DR-20201113,jo,3,1070,18,33,Go,Left,0,Left,294,High
jou-cmand1DR-20201113,jo,3,1071,18,34,Go,Right,0,NoStart,0,Low
jou-cmand1DR-20201113,jo,3,1072,18,35,Stop,Left,333,Left,248,High
jou-cmand1DR-20201113,jo,3,1073,18,36,Go,Right,0,Right,609,Low
jou-cmand1DR-20201113,jo,3,1074,18,37,Stop,Right,267,NoResponse,0,Low
jou-cmand1DR-20201113,jo,3,1075,18,38,Go,Left,0,NoStart,0,High
jou-cmand1DR-20201113,jo,3,1076,18,39,Stop,Right,333,NoStart,0,Low
jou-cmand1DR-20201113,jo,3,1077,18,40,Go,Left,0,Left,302,High
jou-cmand1DR-20201113,jo,3,1078,18,41,Go,Right,0,Right,677,Low
jou-cmand1DR-20201113,jo,3,1079,18,42,Go,Left,0,Left,250,High
jou-cmand1DR-20201113,jo,3,1080,18,43,Stop,Left,483,Left,245,High
jou-cmand1DR-20201113,jo,3,1081,18,44,Stop,Right,333,NoStart,0,Low
jou-cmand1DR-20201113,jo,3,1082,18,45,Stop,Left,333,NoStart,0,High
jou-cmand1DR-20201113,jo,3,1083,18,46,Go,Left,0,NoStart,0,High
jou-cmand1DR-20201113,jo,3,1084,18,47,Stop,Left,333,NoStart,0,High
jou-cmand1DR-20201113,jo,3,1085,18,48,Go,Right,0,Right,428,Low
jou-cmand1DR-20201113,jo,3,1086,18,49,Go,Right,0,Right,661,Low
jou-cmand1DR-20201113,jo,3,1087,18,50,Stop,Left,133,NoStart,0,High
jou-cmand1DR-20201113,jo,3,1088,18,51,Go,Left,0,NoStart,0,High
jou-cmand1DR-20201113,jo,3,1089,18,52,Go,Right,0,NoStart,0,Low
jou-cmand1DR-20201113,jo,3,1090,18,53,Stop,Left,400,NoStart,0,High
jou-cmand1DR-20201113,jo,3,1091,18,54,Go,Left,0,NoStart,0,High
jou-cmand1DR-20201113,jo,3,1092,18,55,Go,Left,0,NoStart,0,High
jou-cmand1DR-20201113,jo,3,1093,18,56,Go,Right,0,NoStart,0,Low
jou-cmand1DR-20201113,jo,3,1094,18,57,Go,Right,0,NoStart,0,Low
jou-cmand1DR-20201113,jo,3,1095,18,58,Go,Left,0,NoStart,0,High
jou-cmand1DR-20201113,jo,3,1096,18,59,Go,Right,0,NoStart,0,Low
jou-cmand1DR-20201113,jo,3,1097,18,60,Go,Right,0,NoStart,0,Low
jou-cmand1DR-20201113,jo,3,1098,18,61,Go,Left,0,NoStart,0,High
jou-cmand1DR-20201113,jo,3,1099,18,62,Stop,Right,400,NoStart,0,Low
jou-cmand1DR-20201113,jo,3,1100,18,63,Go,Right,0,NoStart,0,Low
jou-cmand1DR-20201113,jo,3,1101,18,64,Go,Left,0,NoStart,0,High
jou-cmand1DR-20201113,jo,3,1102,18,65,Go,Left,0,NoStart,0,High
jou-cmand1DR-20201113,jo,3,1103,18,66,Go,Left,0,NoStart,0,High
jou-cmand1DR-20201113,jo,3,1104,18,67,Stop,Right,133,NoStart,0,Low
jou-cmand1DR-20201113,jo,3,1105,18,68,Go,Left,0,NoStart,0,High
jou-cmand1DR-20201113,jo,3,1106,18,69,Stop,Right,200,NoStart,0,Low
jou-cmand1DR-20201113,jo,3,1107,18,70,Go,Left,0,NoStart,0,High
jou-cmand1DR-20201113,jo,3,1108,18,71,Stop,Right,133,NoStart,0,Low
jou-cmand1DR-20201113,jo,3,1109,18,72,Go,Right,0,NoStart,0,Low
jou-cmand1DR-20201113,jo,3,1110,18,73,Stop,Right,400,NoStart,0,Low
jou-cmand1DR-20201113,jo,3,1111,18,74,Stop,Left,400,NoStart,0,High
jou-cmand1DR-20201113,jo,3,1112,18,75,Stop,Left,200,NoStart,0,High
jou-cmand1DR-20201113,jo,3,1113,18,76,Stop,Right,333,NoStart,0,Low
jou-cmand1DR-20201113,jo,3,1114,18,77,Go,Right,0,NoStart,0,Low
jou-cmand1DR-20201113,jo,3,1115,18,78,Stop,Left,400,NoStart,0,High
jou-cmand1DR-20201113,jo,3,1116,18,79,Stop,Right,133,NoStart,0,Low
jou-cmand1DR-20201113,jo,3,1117,18,80,Go,Left,0,NoStart,0,High
jou-cmand1DR-20201113,jo,3,1118,18,81,Go,Right,0,NoStart,0,Low
jou-cmand1DR-20201113,jo,3,1119,18,82,Stop,Left,50,NoStart,0,High
jou-cmand1DR-20201113,jo,3,1120,18,83,Stop,Left,50,NoStart,0,High
jou-cmand1DR-20201113,jo,3,1121,18,84,Go,Left,0,NoStart,0,High
jou-cmand1DR-20201113,jo,3,1122,18,85,Go,Left,0,NoStart,0,High
jou-cmand1DR-20201113,jo,3,1123,18,86,Stop,Right,50,NoStart,0,Low
jou-cmand1DR-20201113,jo,3,1124,18,87,Stop,Right,333,NoStart,0,Low
jou-cmand1DR-20201113,jo,3,1125,18,88,Go,Right,0,NoStart,0,Low
jou-cmand1DR-20201113,jo,3,1126,18,89,Go,Left,0,NoStart,0,High
jou-cmand1DR-20201113,jo,3,1127,18,90,Stop,Left,333,NoStart,0,High
jou-cmand1DR-20201113,jo,3,1128,18,91,Stop,Right,400,NoStart,0,Low
jou-cmand1DR-20201113,jo,3,1129,18,92,Stop,Left,50,NoStart,0,High
jou-cmand1DR-20201113,jo,3,1130,18,93,Stop,Left,133,NoStart,0,High
jou-cmand1DR-20201113,jo,3,1131,18,94,Go,Left,0,NoStart,0,High
jou-cmand1DR-20201113,jo,3,1132,18,95,Stop,Right,333,NoStart,0,Low
jou-cmand1DR-20201113,jo,3,1133,18,96,Stop,Left,400,NoStart,0,High
jou-cmand1DR-20201113,jo,3,1134,18,97,Go,Left,0,NoStart,0,High
jou-cmand1DR-20201113,jo,3,1135,18,98,Go,Left,0,NoStart,0,High
jou-cmand1DR-20201113,jo,3,1136,18,99,Go,Right,0,NoStart,0,Low
jou-cmand1DR-20201113,jo,3,1137,18,100,Go,Right,0,NoStart,0,Low
jou-cmand1DR-20201113,jo,3,1138,18,101,Stop,Left,400,NoStart,0,High
jou-cmand1DR-20201113,jo,3,1139,18,102,Stop,Left,50,NoStart,0,High
jou-cmand1DR-20201113,jo,3,1140,18,103,Stop,Left,400,NoStart,0,High
jou-cmand1DR-20201113,jo,3,1141,18,104,Stop,Right,133,NoStart,0,Low
jou-cmand1DR-20201113,jo,3,1142,18,105,Stop,Left,200,NoStart,0,High
jou-cmand1DR-20201113,jo,3,1143,18,106,Stop,Left,483,NoStart,0,High
jou-cmand1DR-20201113,jo,3,1144,18,107,Stop,Left,267,NoStart,0,High
jou-cmand1DR-20201113,jo,3,1145,18,108,Stop,Right,267,NoStart,0,Low
jou-cmand1DR-20201113,jo,3,1146,18,109,Stop,Right,267,NoStart,0,Low
jou-cmand1DR-20201113,jo,3,1147,18,110,Go,Left,0,NoStart,0,High
jou-cmand1DR-20201113,jo,3,1148,18,111,Go,Right,0,NoStart,0,Low
jou-cmand1DR-20201113,jo,3,1149,18,112,Go,Left,0,NoStart,0,High
jou-cmand1DR-20201113,jo,3,1150,18,113,Go,Right,0,NoStart,0,Low
jou-cmand1DR-20201113,jo,3,1151,18,114,Go,Left,0,NoStart,0,High
jou-cmand1DR-20201113,jo,3,1152,18,115,Stop,Left,200,NoStart,0,High
jou-cmand1DR-20201113,jo,3,1153,18,116,Stop,Right,133,NoStart,0,Low
jou-cmand1DR-20201113,jo,3,1154,18,117,Stop,Left,50,NoStart,0,High
jou-cmand1DR-20201113,jo,3,1155,18,118,Go,Left,0,NoStart,0,High
jou-cmand1DR-20201113,jo,3,1156,18,119,Go,Left,0,NoStart,0,High
jou-cmand1DR-20201113,jo,3,1157,18,120,Stop,Left,50,NoStart,0,High
jou-cmand1DR-20201113,jo,3,1158,18,121,Stop,Left,400,NoStart,0,High
jou-cmand1DR-20201113,jo,3,1159,18,122,Go,Left,0,NoStart,0,High
jou-cmand1DR-20201113,jo,3,1160,18,123,Go,Left,0,NoStart,0,High
jou-cmand1DR-20201113,jo,3,1161,18,124,Stop,Left,483,NoStart,0,High
jou-cmand1DR-20201113,jo,3,1162,18,125,Stop,Right,483,NoStart,0,Low
jou-cmand1DR-20201113,jo,3,1163,18,126,Go,Left,0,NoStart,0,High
jou-cmand1DR-20201113,jo,3,1164,18,127,Go,Left,0,NoStart,0,High
jou-cmand1DR-20201113,jo,3,1165,18,128,Stop,Left,483,NoStart,0,High
jou-cmand1DR-20201113,jo,3,1166,18,129,Go,Left,0,NoStart,0,High
jou-cmand1DR-20201113,jo,3,1167,18,130,Go,Left,0,NoStart,0,High
jou-cmand1DR-20201113,jo,3,1168,18,131,Go,Left,0,NoStart,0,High
jou-cmand1DR-20201113,jo,3,1169,18,132,Stop,Left,400,NoStart,0,High
jou-cmand1DR-20201113,jo,3,1170,18,133,Stop,Right,133,NoStart,0,Low
jou-cmand1DR-20201113,jo,3,1171,18,134,Stop,Left,333,NoStart,0,High
jou-cmand1DR-20201113,jo,3,1172,18,135,Go,Right,0,NoStart,0,Low
jou-cmand1DR-20201113,jo,3,1173,18,136,Stop,Left,50,NoStart,0,High
jou-cmand1DR-20201113,jo,3,1174,18,137,Stop,Right,200,NoStart,0,Low
jou-cmand1DR-20201113,jo,3,1175,18,138,Stop,Right,50,NoStart,0,Low
jou-cmand1DR-20201113,jo,3,1176,18,139,Go,Left,0,NoStart,0,High
jou-cmand1DR-20201113,jo,3,1177,18,140,Stop,Right,133,NoStart,0,Low
jou-cmand1DR-20201113,jo,3,1178,18,141,Go,Right,0,NoStart,0,Low
jou-cmand1DR-20201113,jo,3,1179,18,142,Stop,Right,50,NoStart,0,Low
jou-cmand1DR-20201113,jo,3,1180,18,143,Go,Left,0,NoStart,0,High
jou-cmand1DR-20201113,jo,3,1181,18,144,Stop,Right,133,NoStart,0,Low
jou-cmand1DR-20201113,jo,3,1182,18,145,Stop,Left,333,NoStart,0,High
jou-cmand1DR-20201113,jo,3,1183,18,146,Go,Right,0,NoStart,0,Low
jou-cmand1DR-20201113,jo,3,1184,18,147,Go,Left,0,NoStart,0,High
jou-cmand1DR-20201113,jo,3,1185,18,148,Go,Right,0,NoStart,0,Low
jou-cmand1DR-20201113,jo,3,1186,18,149,Go,Right,0,NoStart,0,Low
jou-cmand1DR-20201113,jo,3,1187,18,150,Go,Left,0,NoStart,0,High
jou-cmand1DR-20201113,jo,3,1188,18,151,Go,Left,0,NoStart,0,High
jou-cmand1DR-20201113,jo,3,1189,18,152,Stop,Left,483,NoStart,0,High
jou-cmand1DR-20201113,jo,3,1190,18,153,Go,Left,0,NoStart,0,High
jou-cmand1DR-20201113,jo,3,1191,18,154,Stop,Right,483,NoStart,0,Low
jou-cmand1DR-20201113,jo,3,1192,18,155,Stop,Left,133,NoStart,0,High
jou-cmand1DR-20201113,jo,3,1193,18,156,Go,Right,0,NoStart,0,Low
jou-cmand1DR-20201113,jo,3,1194,18,157,Go,Right,0,NoStart,0,Low
jou-cmand1DR-20201113,jo,3,1195,18,158,Go,Right,0,NoStart,0,Low
jou-cmand1DR-20201113,jo,3,1196,18,159,Stop,Left,333,NoStart,0,High
jou-cmand1DR-20201113,jo,3,1197,18,160,Go,Right,0,NoStart,0,Low
jou-cmand1DR-20201113,jo,3,1198,18,161,Go,Left,0,NoStart,0,High
jou-cmand1DR-20201113,jo,3,1199,18,162,Go,Left,0,NoStart,0,High
jou-cmand1DR-20201113,jo,3,1200,18,163,Stop,Left,267,NoStart,0,High
jou-cmand1DR-20201113,jo,3,1201,18,164,Go,Left,0,NoStart,0,High
jou-cmand1DR-20201113,jo,3,1202,18,165,Stop,Right,333,NoStart,0,Low
jou-cmand1DR-20201113,jo,3,1203,18,166,Go,Left,0,NoStart,0,High
jou-cmand1DR-20201113,jo,3,1204,18,167,Go,Right,0,NoStart,0,Low
jou-cmand1DR-20201113,jo,3,1205,18,168,Go,Right,0,NoStart,0,Low
jou-cmand1DR-20201113,jo,3,1206,18,169,Go,Right,0,NoStart,0,Low
jou-cmand1DR-20201113,jo,3,1207,18,170,Go,Right,0,NoStart,0,Low
jou-cmand1DR-20201113,jo,3,1208,18,171,Go,Right,0,NoStart,0,Low
jou-cmand1DR-20201113,jo,3,1209,18,172,Go,Right,0,NoStart,0,Low
jou-cmand1DR-20201113,jo,3,1210,18,173,Go,Left,0,NoStart,0,High
jou-cmand1DR-20201113,jo,3,1211,18,174,Go,Right,0,NoStart,0,Low
jou-cmand1DR-20201113,jo,3,1212,18,175,Stop,Right,50,NoStart,0,Low
jou-cmand1DR-20201113,jo,3,1213,18,176,Stop,Right,50,NoStart,0,Low
jou-cmand1DR-20201113,jo,3,1214,18,177,Go,Left,0,NoStart,0,High
jou-cmand1DR-20201113,jo,3,1215,18,178,Stop,Left,483,NoStart,0,High
jou-cmand1DR-20201113,jo,3,1216,18,179,Stop,Right,400,NoStart,0,Low
jou-cmand1DR-20201113,jo,3,1217,18,180,Go,Left,0,NoStart,0,High
jou-cmand1DR-20201113,jo,3,1218,18,181,Go,Right,0,NoStart,0,Low
jou-cmand1DR-20201113,jo,3,1219,18,182,Go,Left,0,NoStart,0,High
jou-cmand1DR-20201113,jo,3,1220,18,183,Stop,Right,483,NoStart,0,Low
jou-cmand1DR-20201113,jo,3,1221,18,184,Go,Left,0,NoStart,0,High
jou-cmand1DR-20201113,jo,3,1222,18,185,Stop,Left,267,NoStart,0,High
jou-cmand1DR-20201113,jo,3,1223,18,186,Go,Left,0,NoStart,0,High
jou-cmand1DR-20201113,jo,3,1224,18,187,Go,Left,0,NoStart,0,High
jou-cmand1DR-20201113,jo,3,1225,18,188,Go,Left,0,NoStart,0,High
jou-cmand1DR-20201113,jo,3,1226,18,189,Go,Right,0,NoStart,0,Low
jou-cmand1DR-20201113,jo,3,1227,18,190,Go,Right,0,NoStart,0,Low
jou-cmand1DR-20201113,jo,3,1228,18,191,Go,Right,0,NoStart,0,Low
jou-cmand1DR-20201113,jo,3,1229,18,192,Go,Right,0,NoStart,0,Low
jou-cmand1DR-20201113,jo,3,1230,18,193,Stop,Left,50,NoStart,0,High
jou-cmand1DR-20201113,jo,3,1231,18,194,Go,Left,0,NoStart,0,High
jou-cmand1DR-20201113,jo,3,1232,18,195,Go,Left,0,NoStart,0,High
jou-cmand1DR-20201113,jo,3,1233,18,196,Stop,Right,50,NoStart,0,Low
jou-cmand1DR-20201113,jo,3,1234,18,197,Go,Left,0,NoStart,0,High
jou-cmand1DR-20201113,jo,3,1235,18,198,Stop,Left,133,NoStart,0,High
jou-cmand1DR-20201113,jo,3,1236,18,199,Go,Right,0,NoStart,0,Low
jou-cmand1DR-20201113,jo,3,1237,18,200,Go,Left,0,NoStart,0,High
jou-cmand1DR-20201113,jo,3,1238,18,201,Stop,Right,333,NoStart,0,Low
jou-cmand1DR-20201113,jo,3,1239,18,202,Go,Right,0,NoStart,0,Low
jou-cmand1DR-20201113,jo,3,1240,18,203,Go,Right,0,NoStart,0,Low
jou-cmand1DR-20201113,jo,3,1241,18,204,Go,Left,0,NoStart,0,High
jou-cmand1DR-20201113,jo,3,1242,18,205,Go,Right,0,NoStart,0,Low
jou-cmand1DR-20201113,jo,3,1243,18,206,Stop,Right,267,NoStart,0,Low
jou-cmand1DR-20201113,jo,3,1244,18,207,Stop,Right,50,NoStart,0,Low
jou-cmand1DR-20201113,jo,3,1245,18,208,Stop,Left,50,NoStart,0,High
jou-cmand1DR-20201113,jo,3,1246,18,209,Go,Right,0,NoStart,0,Low
jou-cmand1DR-20201113,jo,3,1247,18,210,Go,Left,0,NoStart,0,High
jou-cmand1DR-20201113,jo,3,1248,18,211,Go,Left,0,NoStart,0,High
jou-cmand1DR-20201113,jo,3,1249,18,212,Stop,Left,333,NoStart,0,High
jou-cmand1DR-20201113,jo,3,1250,18,213,Stop,Left,133,NoStart,0,High
jou-cmand1DR-20201113,jo,3,1251,18,214,Stop,Right,133,NoStart,0,Low
jou-cmand1DR-20201113,jo,3,1252,18,215,Go,Left,0,NoStart,0,High
jou-cmand1DR-20201113,jo,3,1253,18,216,Go,Left,0,NoStart,0,High
jou-cmand1DR-20201113,jo,3,1254,18,217,Go,Right,0,NoStart,0,Low
jou-cmand1DR-20201113,jo,3,1255,18,218,Go,Right,0,NoStart,0,Low
jou-cmand1DR-20201113,jo,3,1256,18,219,Stop,Left,200,NoStart,0,High
jou-cmand1DR-20201113,jo,3,1257,18,220,Go,Right,0,NoStart,0,Low
jou-cmand1DR-20201113,jo,3,1258,18,221,Go,Right,0,NoStart,0,Low
jou-cmand1DR-20201113,jo,3,1259,18,222,Go,Left,0,NoStart,0,High
jou-cmand1DR-20201113,jo,3,1260,18,223,Go,Right,0,NoStart,0,Low
jou-cmand1DR-20201113,jo,3,1261,18,224,Stop,Left,50,NoStart,0,High
jou-cmand1DR-20201113,jo,3,1262,18,225,Go,Right,0,NoStart,0,Low
jou-cmand1DR-20201113,jo,3,1263,18,226,Go,Right,0,NoStart,0,Low
jou-cmand1DR-20201113,jo,3,1264,18,227,Stop,Left,333,NoStart,0,High
jou-cmand1DR-20201113,jo,3,1265,18,228,Go,Left,0,NoStart,0,High
jou-cmand1DR-20201113,jo,3,1266,18,229,Stop,Left,400,NoStart,0,High
jou-cmand1DR-20201113,jo,3,1267,18,230,Go,Right,0,NoStart,0,Low
jou-cmand1DR-20201113,jo,3,1268,18,231,Stop,Left,200,NoStart,0,High
jou-cmand1DR-20201113,jo,3,1269,18,232,Stop,Left,483,NoStart,0,High
jou-cmand1DR-20201113,jo,3,1270,18,233,Go,Left,0,NoStart,0,High
jou-cmand1DR-20201113,jo,3,1271,18,234,Go,Right,0,NoStart,0,Low
jou-cmand1DR-20201113,jo,3,1272,18,235,Go,Right,0,NoStart,0,Low
jou-cmand1DR-20201113,jo,3,1273,18,236,Stop,Right,133,NoStart,0,Low
jou-cmand1DR-20201113,jo,3,1274,18,237,Go,Left,0,NoStart,0,High
jou-cmand1DR-20201113,jo,3,1275,18,238,Go,Right,0,NoStart,0,Low
jou-cmand1DR-20201113,jo,3,1276,18,239,Go,Left,0,NoStart,0,High
jou-cmand1DR-20201113,jo,3,1277,18,240,Stop,Left,50,NoStart,0,High
jou-cmand1DR-20201113,jo,3,1278,18,241,Go,Left,0,NoStart,0,High
jou-cmand1DR-20201113,jo,3,1279,18,242,Go,Left,0,NoStart,0,High
jou-cmand1DR-20201113,jo,3,1280,18,243,Stop,Left,200,NoStart,0,High
jou-cmand1DR-20201113,jo,3,1281,18,244,Stop,Right,50,NoStart,0,Low
jou-cmand1DR-20201113,jo,3,1282,18,245,Go,Right,0,NoStart,0,Low
jou-cmand1DR-20201113,jo,3,1283,18,246,Go,Left,0,NoStart,0,High
jou-cmand1DR-20201113,jo,3,1284,18,247,Stop,Left,50,NoStart,0,High
jou-cmand1DR-20201113,jo,3,1285,18,248,Go,Right,0,NoStart,0,Low
jou-cmand1DR-20201113,jo,3,1286,18,249,Go,Left,0,NoStart,0,High
jou-cmand1DR-20201113,jo,3,1287,18,250,Go,Left,0,NoStart,0,High
jou-cmand1DR-20201113,jo,3,1288,18,251,Stop,Left,133,NoStart,0,High
jou-cmand1DR-20201113,jo,3,1289,18,252,Go,Left,0,NoStart,0,High
jou-cmand1DR-20201113,jo,3,1290,18,253,Go,Left,0,NoStart,0,High
jou-cmand1DR-20201113,jo,3,1291,18,254,Go,Left,0,NoStart,0,High
jou-cmand1DR-20201113,jo,3,1292,18,255,Go,Right,0,NoStart,0,Low
jou-cmand1DR-20201113,jo,3,1293,18,256,Go,Left,0,NoStart,0,High
jou-cmand1DR-20201113,jo,3,1294,18,257,Stop,Left,200,NoStart,0,High
jou-cmand1DR-20201113,jo,3,1295,18,258,Go,Left,0,NoStart,0,High
jou-cmand1DR-20201113,jo,3,1296,18,259,Go,Left,0,NoStart,0,High
jou-cmand1DR-20201113,jo,3,1297,18,260,Stop,Right,133,NoStart,0,Low
jou-cmand1DR-20201113,jo,3,1298,18,261,Go,Left,0,NoStart,0,High
jou-cmand1DR-20201113,jo,3,1299,18,262,Go,Right,0,NoStart,0,Low
jou-cmand1DR-20201113,jo,3,1300,18,263,Go,Left,0,NoStart,0,High
jou-cmand1DR-20201113,jo,3,1301,18,264,Go,Left,0,NoStart,0,High
jou-cmand1DR-20201113,jo,3,1302,18,265,Go,Right,0,NoStart,0,Low
jou-cmand1DR-20201113,jo,3,1303,18,266,Stop,Right,133,NoStart,0,Low
jou-cmand1DR-20201113,jo,3,1304,18,267,Go,Left,0,NoStart,0,High
jou-cmand1DR-20201113,jo,3,1305,18,268,Stop,Left,267,NoStart,0,High
jou-cmand1DR-20201113,jo,3,1306,18,269,Go,Right,0,NoStart,0,Low
jou-cmand1DR-20201113,jo,3,1307,18,270,Stop,Left,483,NoStart,0,High
jou-cmand1DR-20201113,jo,3,1308,18,271,Go,Left,0,NoStart,0,High
jou-cmand1DR-20201113,jo,3,1309,18,272,Stop,Left,200,NoStart,0,High
jou-cmand1DR-20201113,jo,3,1310,18,273,Stop,Right,333,NoStart,0,Low
jou-cmand1DR-20201113,jo,3,1311,18,274,Stop,Left,400,NoStart,0,High
jou-cmand1DR-20201113,jo,3,1312,18,275,Stop,Left,50,NoStart,0,High
jou-cmand1DR-20201113,jo,3,1313,18,276,Go,Left,0,NoStart,0,High
jou-cmand1DR-20201113,jo,3,1314,18,277,Go,Right,0,NoStart,0,Low
jou-cmand1DR-20201113,jo,3,1315,18,278,Stop,Right,267,NoStart,0,Low
jou-cmand1DR-20201113,jo,3,1316,18,279,Go,Right,0,NoStart,0,Low
jou-cmand1DR-20201113,jo,3,1317,18,280,Go,Right,0,NoStart,0,Low
jou-cmand1DR-20201113,jo,3,1318,18,281,Go,Right,0,NoStart,0,Low
jou-cmand1DR-20201113,jo,3,1319,18,282,Stop,Right,483,NoStart,0,Low
jou-cmand1DR-20201113,jo,3,1320,18,283,Go,Right,0,NoStart,0,Low
jou-cmand1DR-20201113,jo,3,1321,18,284,Go,Left,0,NoStart,0,High
jou-cmand1DR-20201113,jo,3,1322,18,285,Stop,Left,333,NoStart,0,High
jou-cmand1DR-20201113,jo,3,1323,18,286,Go,Left,0,NoStart,0,High
jou-cmand1DR-20201113,jo,3,1324,18,287,Go,Right,0,NoStart,0,Low
jou-cmand1DR-20201113,jo,3,1325,18,288,Stop,Right,267,NoStart,0,Low
jou-cmand1DR-20201113,jo,3,1326,18,289,Go,Left,0,NoStart,0,High
jou-cmand1DR-20201113,jo,3,1327,18,290,Go,Right,0,NoStart,0,Low
jou-cmand1DR-20201113,jo,3,1328,18,291,Go,Left,0,NoStart,0,High
jou-cmand1DR-20201113,jo,3,1329,18,292,Go,Right,0,NoStart,0,Low
jou-cmand1DR-20201113,jo,3,1330,18,293,Stop,Left,200,NoStart,0,High
jou-cmand1DR-20201113,jo,3,1331,18,294,Go,Right,0,NoStart,0,Low
jou-cmand1DR-20201113,jo,3,1332,18,295,Go,Right,0,NoStart,0,Low
jou-cmand1DR-20201113,jo,3,1333,18,296,Stop,Left,400,NoStart,0,High
jou-cmand1DR-20201113,jo,3,1334,18,297,Stop,Right,333,NoStart,0,Low
jou-cmand1DR-20201113,jo,3,1335,18,298,Stop,Left,50,NoStart,0,High
jou-cmand1DR-20201113,jo,3,1336,18,299,Go,Right,0,NoStart,0,Low
jou-cmand1DR-20201113,jo,3,1337,18,300,Go,Right,0,NoStart,0,Low
jou-cmand1DR-20201113,jo,3,1338,18,301,Go,Right,0,NoStart,0,Low
jou-cmand1DR-20201113,jo,3,1339,18,302,Go,Left,0,NoStart,0,High
jou-cmand1DR-20201113,jo,3,1340,18,303,Go,Left,0,NoStart,0,High
jou-cmand1DR-20201113,jo,3,1341,18,304,Go,Right,0,NoStart,0,Low
jou-cmand1DR-20201113,jo,3,1342,18,305,Stop,Left,267,NoStart,0,High
jou-cmand1DR-20201113,jo,3,1343,18,306,Go,Right,0,NoStart,0,Low
jou-cmand1DR-20201113,jo,3,1344,18,307,Go,Left,0,NoStart,0,High
jou-cmand1DR-20201113,jo,3,1345,18,308,Go,Left,0,NoStart,0,High
jou-cmand1DR-20201113,jo,3,1346,18,309,Stop,Right,267,NoStart,0,Low
jou-cmand1DR-20201113,jo,3,1347,18,310,Stop,Right,133,NoStart,0,Low
jou-cmand1DR-20201113,jo,3,1348,18,311,Go,Left,0,NoStart,0,High
jou-cmand1DR-20201113,jo,3,1349,18,312,Go,Right,0,NoStart,0,Low
jou-cmand1DR-20201113,jo,3,1350,18,313,Go,Left,0,NoStart,0,High
jou-cmand1DR-20201113,jo,3,1351,18,314,Go,Left,0,NoStart,0,High
jou-cmand1DR-20201113,jo,3,1352,18,315,Go,Left,0,NoStart,0,High
jou-cmand1DR-20201113,jo,3,1353,18,316,Go,Right,0,NoStart,0,Low
jou-cmand1DR-20201113,jo,3,1354,18,317,Stop,Right,200,NoStart,0,Low
jou-cmand1DR-20201113,jo,3,1355,18,318,Go,Right,0,NoStart,0,Low
jou-cmand1DR-20201113,jo,3,1356,18,319,Go,Right,0,NoStart,0,Low
jou-cmand1DR-20201113,jo,3,1357,18,320,Go,Left,0,NoStart,0,High
jou-cmand1DR-20201113,jo,3,1358,18,321,Stop,Left,133,NoStart,0,High
jou-cmand1DR-20201113,jo,3,1359,18,322,Go,Right,0,NoStart,0,Low
jou-cmand1DR-20201113,jo,3,1360,18,323,Go,Left,0,NoStart,0,High
jou-cmand1DR-20201113,jo,3,1361,18,324,Stop,Left,267,NoStart,0,High
jou-cmand1DR-20201113,jo,3,1362,18,325,Stop,Left,50,NoStart,0,High
jou-cmand1DR-20201113,jo,3,1363,18,326,Stop,Left,400,NoStart,0,High
jou-cmand1DR-20201113,jo,3,1364,18,327,Go,Left,0,NoStart,0,High
jou-cmand1DR-20201113,jo,3,1365,18,328,Go,Left,0,NoStart,0,High
jou-cmand1DR-20201113,jo,3,1366,18,329,Go,Right,0,NoStart,0,Low
jou-cmand1DR-20201113,jo,3,1367,18,330,Go,Right,0,NoStart,0,Low
jou-cmand1DR-20201113,jo,3,1368,18,331,Go,Left,0,NoStart,0,High
jou-cmand1DR-20201113,jo,3,1369,18,332,Go,Right,0,NoStart,0,Low
jou-cmand1DR-20201113,jo,3,1370,18,333,Go,Right,0,NoStart,0,Low
jou-cmand1DR-20201113,jo,3,1371,18,334,Stop,Left,483,NoStart,0,High
jou-cmand1DR-20201113,jo,3,1372,18,335,Go,Right,0,NoStart,0,Low
jou-cmand1DR-20201113,jo,3,1373,18,336,Go,Left,0,NoStart,0,High
jou-cmand1DR-20201113,jo,3,1374,18,337,Go,Right,0,NoStart,0,Low
jou-cmand1DR-20201113,jo,3,1375,18,338,Go,Left,0,NoStart,0,High
jou-cmand1DR-20201113,jo,3,1376,18,339,Go,Right,0,NoStart,0,Low
jou-cmand1DR-20201113,jo,3,1377,18,340,Go,Right,0,NoStart,0,Low
jou-cmand1DR-20201113,jo,3,1378,18,341,Go,Right,0,NoStart,0,Low
jou-cmand1DR-20201113,jo,3,1379,18,342,Go,Right,0,Right,337,Low
jou-cmand1DR-20201113,jo,3,1380,18,343,Go,Right,0,NoStart,0,Low
jou-cmand1DR-20201113,jo,3,1381,18,344,Stop,Left,267,NoStart,0,High
jou-cmand1DR-20201113,jo,3,1382,18,345,Stop,Left,133,NoStart,0,High
jou-cmand1DR-20201113,jo,3,1383,18,346,Go,Right,0,Right,242,Low
jou-cmand1DR-20201113,jo,3,1384,18,347,Go,Right,0,Right,330,Low
jou-cmand1DR-20201113,jo,3,1385,18,348,Stop,Left,50,NoResponse,0,High
jou-cmand1DR-20201113,jo,3,1386,18,349,Stop,Right,133,NoResponse,0,Low
jou-cmand1DR-20201113,jo,3,1387,18,350,Go,Left,0,Left,297,High
jou-cmand1DR-20201113,jo,3,1388,18,351,Stop,Left,333,Left,276,High
jou-cmand1DR-20201113,jo,3,1389,18,352,Go,Right,0,Right,626,Low
jou-cmand1DR-20201113,jo,3,1390,18,353,Stop,Right,133,NoStart,0,Low
jou-cmand1DR-20201113,jo,3,1391,18,354,Go,Right,0,Right,557,Low
jou-cmand1DR-20201113,jo,3,1392,18,355,Go,Right,0,Right,338,Low
jou-cmand1DR-20201113,jo,3,1393,18,356,Go,Left,0,Left,224,High
jou-cmand1DR-20201113,jo,3,1394,18,357,Stop,Left,133,NoResponse,0,High
jou-cmand1DR-20201113,jo,3,1395,18,358,Stop,Left,333,Left,257,High
jou-cmand1DR-20201113,jo,3,1396,18,359,Stop,Left,267,Left,292,High
jou-cmand1DR-20201113,jo,3,1397,18,360,Stop,Right,133,NoStart,0,Low
jou-cmand1DR-20201113,jo,3,1398,18,361,Go,Right,0,Right,355,Low
jou-cmand1DR-20201113,jo,3,1399,18,362,Go,Right,0,NoStart,0,Low
jou-cmand1DR-20201113,jo,3,1400,18,363,Go,Left,0,Left,287,High
jou-cmand1DR-20201113,jo,3,1401,18,364,Go,Left,0,Left,318,High
jou-cmand1DR-20201113,jo,3,1402,18,365,Go,Left,0,Left,268,High
jou-cmand1DR-20201113,jo,3,1403,18,366,Go,Right,0,Right,350,Low
jou-cmand1DR-20201113,jo,3,1404,18,367,Go,Left,0,Left,243,High
jou-cmand1DR-20201113,jo,3,1405,18,368,Go,Left,0,Left,250,High
jou-cmand1DR-20201113,jo,3,1406,19,1,Go,Left,0,Left,220,Low
jou-cmand1DR-20201113,jo,3,1407,19,2,Go,Right,0,Right,280,High
jou-cmand1DR-20201113,jo,3,1408,19,3,Go,Right,0,Right,255,High
jou-cmand1DR-20201113,jo,3,1409,19,4,Stop,Left,133,NoResponse,0,Low
jou-cmand1DR-20201113,jo,3,1410,19,5,Go,Left,0,Left,424,Low
jou-cmand1DR-20201113,jo,3,1411,19,6,Go,Right,0,NoStart,0,High
jou-cmand1DR-20201113,jo,3,1412,19,7,Go,Right,0,Right,271,High
jou-cmand1DR-20201113,jo,3,1413,19,8,Go,Left,0,Left,337,Low
jou-cmand1DR-20201113,jo,3,1414,19,9,Go,Left,0,Left,401,Low
jou-cmand1DR-20201113,jo,3,1415,19,10,Go,Left,0,Left,449,Low
jou-cmand1DR-20201113,jo,3,1416,19,11,Go,Left,0,Left,534,Low
jou-cmand1DR-20201113,jo,3,1417,19,12,Go,Right,0,Right,249,High
jou-cmand1DR-20201113,jo,3,1418,19,13,Stop,Right,267,Right,264,High
jou-cmand1DR-20201113,jo,3,1419,19,14,Go,Right,0,Right,299,High
jou-cmand1DR-20201113,jo,3,1420,19,15,Go,Left,0,Left,421,Low
jou-cmand1DR-20201113,jo,3,1421,19,16,Go,Left,0,Left,388,Low
jou-cmand1DR-20201113,jo,3,1422,19,17,Stop,Right,133,NoResponse,0,High
jou-cmand1DR-20201113,jo,3,1423,19,18,Go,Left,0,Left,371,Low
jou-cmand1DR-20201113,jo,3,1424,19,19,Go,Left,0,Left,381,Low
jou-cmand1DR-20201113,jo,3,1425,19,20,Stop,Left,267,NoStart,0,Low
jou-cmand1DR-20201113,jo,3,1426,19,21,Go,Right,0,Right,234,High
jou-cmand1DR-20201113,jo,3,1427,19,22,Go,Left,0,Left,362,Low
jou-cmand1DR-20201113,jo,3,1428,19,23,Stop,Left,267,NoResponse,0,Low
jou-cmand1DR-20201113,jo,3,1429,19,24,Stop,Left,333,NoResponse,0,Low
jou-cmand1DR-20201113,jo,3,1430,20,1,Stop,Right,400,Right,282,Low
jou-cmand1DR-20201113,jo,3,1431,20,2,Stop,Right,267,NoStart,0,Low
jou-cmand1DR-20201113,jo,3,1432,20,3,Go,Right,0,NoStart,0,Low
jou-cmand1DR-20201113,jo,3,1433,20,4,Go,Right,0,Right,291,Low
jou-cmand1DR-20201113,jo,3,1434,20,5,Go,Right,0,Right,361,Low
jou-cmand1DR-20201113,jo,3,1435,20,6,Go,Right,0,Right,444,Low
jou-cmand1DR-20201113,jo,3,1436,20,7,Go,Left,0,Left,242,High
jou-cmand1DR-20201113,jo,3,1437,20,8,Go,Right,0,Right,594,Low
jou-cmand1DR-20201113,jo,3,1438,20,9,Go,Right,0,Right,526,Low
jou-cmand1DR-20201113,jo,3,1439,20,10,Go,Left,0,Left,281,High
jou-cmand1DR-20201113,jo,3,1440,20,11,Stop,Right,267,NoResponse,0,Low
jou-cmand1DR-20201113,jo,3,1441,20,12,Go,Right,0,Right,584,Low
jou-cmand1DR-20201113,jo,3,1442,20,13,Go,Right,0,Right,638,Low
jou-cmand1DR-20201113,jo,3,1443,20,14,Stop,Left,333,Left,212,High
jou-cmand1DR-20201113,jo,3,1444,20,15,Stop,Right,200,NoResponse,0,Low
jou-cmand1DR-20201113,jo,3,1445,20,16,Go,Right,0,Right,329,Low
jou-cmand1DR-20201113,jo,3,1446,20,17,Go,Left,0,Left,223,High
jou-cmand1DR-20201113,jo,3,1447,20,18,Stop,Right,400,NoStart,0,Low
jou-cmand1DR-20201113,jo,3,1448,20,19,Go,Right,0,Right,614,Low
jou-cmand1DR-20201113,jo,3,1449,20,20,Go,Left,0,NoStart,0,High
jou-cmand1DR-20201113,jo,3,1450,20,21,Go,Left,0,NoStart,0,High
jou-cmand1DR-20201113,jo,3,1451,20,22,Go,Left,0,Left,240,High
jou-cmand1DR-20201113,jo,3,1452,20,23,Go,Left,0,Left,262,High
jou-cmand1DR-20201113,jo,3,1453,20,24,Stop,Right,400,Right,466,Low
jou-cmand1DR-20201113,jo,3,1454,20,25,Go,Right,0,Right,362,Low
jou-cmand1DR-20201113,jo,3,1455,20,26,Stop,Left,200,NoStart,0,High
jou-cmand1DR-20201113,jo,3,1456,20,27,Go,Left,0,Left,244,High
jou-cmand1DR-20201113,jo,3,1457,20,28,Stop,Right,133,NoStart,0,Low
jou-cmand1DR-20201113,jo,3,1458,20,29,Go,Right,0,Right,299,Low
jou-cmand1DR-20201113,jo,3,1459,20,30,Stop,Right,133,NoResponse,0,Low
jou-cmand1DR-20201113,jo,3,1460,20,31,Stop,Right,200,NoResponse,0,Low
jou-cmand1DR-20201113,jo,3,1461,20,32,Go,Left,0,Left,239,High
jou-cmand1DR-20201113,jo,3,1462,20,33,Stop,Right,400,Right,348,Low
jou-cmand1DR-20201113,jo,3,1463,20,34,Go,Left,0,Left,292,High
jou-cmand1DR-20201113,jo,3,1464,20,35,Go,Left,0,Left,272,High
jou-cmand1DR-20201113,jo,3,1465,20,36,Go,Left,0,Left,217,High
jou-cmand1DR-20201113,jo,3,1466,20,37,Stop,Left,200,Left,247,High
jou-cmand1DR-20201113,jo,3,1467,20,38,Stop,Left,133,NoStart,0,High
jou-cmand1DR-20201113,jo,3,1468,20,39,Go,Left,0,Left,241,High
jou-cmand1DR-20201113,jo,3,1469,21,1,Stop,Left,133,NoStart,0,Low
jou-cmand1DR-20201113,jo,3,1470,21,2,Stop,Left,133,NoStart,0,Low
jou-cmand1DR-20201113,jo,3,1471,21,3,Go,Left,0,Left,216,Low
jou-cmand1DR-20201113,jo,3,1472,21,4,Go,Right,0,Right,271,High
jou-cmand1DR-20201113,jo,3,1473,21,5,Stop,Left,133,NoResponse,0,Low
jou-cmand1DR-20201113,jo,3,1474,21,6,Stop,Left,333,Left,418,Low
jou-cmand1DR-20201113,jo,3,1475,21,7,Go,Left,0,Left,381,Low
jou-cmand1DR-20201113,jo,3,1476,21,8,Stop,Right,267,Right,267,High
jou-cmand1DR-20201113,jo,3,1477,21,9,Go,Left,0,Left,415,Low
jou-cmand1DR-20201113,jo,3,1478,21,10,Stop,Left,50,NoResponse,0,Low
jou-cmand1DR-20201113,jo,3,1479,21,11,Stop,Left,133,NoResponse,0,Low
jou-cmand1DR-20201113,jo,3,1480,21,12,Stop,Right,333,Right,267,High
jou-cmand1DR-20201113,jo,3,1481,21,13,Go,Left,0,Left,455,Low
jou-cmand1DR-20201113,jo,3,1482,21,14,Go,Right,0,Right,252,High
jou-cmand1DR-20201113,jo,3,1483,21,15,Stop,Left,267,Left,306,Low
jou-cmand1DR-20201113,jo,3,1484,21,16,Stop,Left,200,NoResponse,0,Low
jou-cmand1DR-20201113,jo,3,1485,21,17,Go,Left,0,Left,352,Low
jou-cmand1DR-20201113,jo,3,1486,21,18,Stop,Right,400,Right,243,High
jou-cmand1DR-20201113,jo,3,1487,21,19,Go,Right,0,Right,296,High
jou-cmand1DR-20201113,jo,3,1488,21,20,Stop,Left,200,NoResponse,0,Low
jou-cmand1DR-20201113,jo,3,1489,21,21,Stop,Left,333,NoResponse,0,Low
jou-cmand1DR-20201113,jo,3,1490,21,22,Go,Right,0,Right,258,High
jou-cmand1DR-20201113,jo,3,1491,21,23,Go,Right,0,Right,260,High
jou-cmand1DR-20201113,jo,3,1492,21,24,Go,Left,0,Left,478,Low
jou-cmand1DR-20201113,jo,3,1493,21,25,Stop,Left,200,NoResponse,0,Low
jou-cmand1DR-20201113,jo,3,1494,21,26,Go,Left,0,Left,456,Low
jou-cmand1DR-20201113,jo,3,1495,22,1,Go,Left,0,Left,448,High
jou-cmand1DR-20201113,jo,3,1496,22,2,Stop,Left,267,Left,231,High
jou-cmand1DR-20201113,jo,3,1497,22,3,Stop,Left,50,NoResponse,0,High
jou-cmand1DR-20201113,jo,3,1498,22,4,Go,Right,0,Right,607,Low
jou-cmand1DR-20201113,jo,3,1499,22,5,Stop,Left,133,NoResponse,0,High
jou-cmand1DR-20201113,jo,3,1500,22,6,Go,Right,0,Right,506,Low
jou-cmand1DR-20201113,jo,3,1501,22,7,Go,Right,0,Right,606,Low
jou-cmand1DR-20201113,jo,3,1502,22,8,Go,Left,0,Left,230,High
jou-cmand1DR-20201113,jo,3,1503,22,9,Go,Left,0,Left,235,High
jou-cmand1DR-20201113,jo,3,1504,22,10,Go,Right,0,Right,383,Low
jou-cmand1DR-20201113,jo,3,1505,22,11,Go,Right,0,Right,566,Low
jou-cmand1DR-20201113,jo,3,1506,22,12,Go,Right,0,Right,468,Low
jou-cmand1DR-20201113,jo,3,1507,22,13,Go,Left,0,Left,224,High
jou-cmand1DR-20201113,jo,3,1508,22,14,Stop,Right,400,NoResponse,0,Low
jou-cmand1DR-20201113,jo,3,1509,22,15,Go,Right,0,Right,392,Low
jou-cmand1DR-20201113,jo,3,1510,22,16,Go,Left,0,Left,225,High
jou-cmand1DR-20201113,jo,3,1511,22,17,Go,Left,0,Left,241,High
jou-cmand1DR-20201113,jo,3,1512,22,18,Go,Left,0,Left,254,High
jou-cmand1DR-20201113,jo,3,1513,22,19,Go,Right,0,Right,540,Low
jou-cmand1DR-20201113,jo,3,1514,22,20,Go,Left,0,Left,261,High
jou-cmand1DR-20201113,jo,3,1515,22,21,Stop,Left,483,Left,246,High
jou-cmand1DR-20201113,jo,3,1516,22,22,Go,Left,0,Left,272,High
jou-cmand1DR-20201113,jo,3,1517,22,23,Go,Right,0,Right,352,Low
jou-cmand1DR-20201113,jo,3,1518,22,24,Go,Right,0,Right,524,Low
jou-cmand1DR-20201113,jo,3,1519,22,25,Go,Right,0,NoStart,0,Low
jou-cmand1DR-20201113,jo,3,1520,22,26,Go,Left,0,Left,230,High
jou-cmand1DR-20201113,jo,3,1521,22,27,Stop,Left,333,Left,262,High
jou-cmand1DR-20201113,jo,3,1522,22,28,Go,Left,0,NoStart,0,High
jou-cmand1DR-20201113,jo,3,1523,22,29,Stop,Left,200,Left,258,High
jou-cmand1DR-20201113,jo,3,1524,22,30,Go,Right,0,Right,604,Low
jou-cmand1DR-20201113,jo,3,1525,22,31,Go,Right,0,Right,312,Low
jou-cmand1DR-20201113,jo,3,1526,22,32,Go,Left,0,Left,253,High
jou-cmand1DR-20201113,jo,3,1527,22,33,Go,Right,0,Right,308,Low
jou-cmand1DR-20201113,jo,3,1528,22,34,Stop,Left,50,NoStart,0,High
jou-cmand1DR-20201113,jo,3,1529,22,35,Go,Left,0,Left,255,High
jou-cmand1DR-20201113,jo,3,1530,23,1,Stop,Left,50,NoStart,0,Low
jou-cmand1DR-20201113,jo,3,1531,23,2,Go,Right,0,Right,285,High
jou-cmand1DR-20201113,jo,3,1532,23,3,Go,Right,0,Right,251,High
jou-cmand1DR-20201113,jo,3,1533,23,4,Go,Right,0,Right,254,High
jou-cmand1DR-20201113,jo,3,1534,23,5,Go,Right,0,Right,247,High
jou-cmand1DR-20201113,jo,3,1535,23,6,Stop,Left,50,NoStart,0,Low
jou-cmand1DR-20201113,jo,3,1536,23,7,Go,Right,0,Right,256,High
jou-cmand1DR-20201113,jo,3,1537,23,8,Go,Left,0,Left,369,Low
jou-cmand1DR-20201113,jo,3,1538,23,9,Stop,Right,50,NoResponse,0,High
jou-cmand1DR-20201113,jo,3,1539,23,10,Go,Right,0,Right,321,High
jou-cmand1DR-20201113,jo,3,1540,23,11,Stop,Left,200,NoResponse,0,Low
jou-cmand1DR-20201113,jo,3,1541,23,12,Go,Left,0,NoStart,0,Low
jou-cmand1DR-20201113,jo,3,1542,23,13,Stop,Left,400,NoResponse,0,Low
jou-cmand1DR-20201113,jo,3,1543,23,14,Stop,Right,483,Right,246,High
jou-cmand1DR-20201113,jo,3,1544,23,15,Go,Right,0,Right,261,High
jou-cmand1DR-20201113,jo,3,1545,23,16,Stop,Left,400,Left,378,Low
jou-cmand1DR-20201113,jo,3,1546,23,17,Go,Left,0,Left,319,Low
